Time,Phi (degrees),Theta (degrees)
0.00000,0.00000,0.00000
0.01200,-0.44764,-0.98092
0.03400,-1.01232,-2.55340
0.04600,-1.25159,-3.18883
0.06800,-1.59095,-4.19751
0.09000,-1.93985,-4.95750
0.10200,-2.09085,-5.30561
0.12400,-2.50230,-5.95539
0.13600,-2.74859,-6.11545
0.15800,-3.10902,-6.49550
0.17000,-3.23521,-6.70269
0.19200,-3.32756,-6.86909
0.20400,-3.27102,-7.00970
0.22600,-3.41403,-7.09144
0.24800,-3.42056,-7.15525
0.26000,-3.44221,-7.25771
0.28200,-3.61343,-7.33569
0.29400,-3.67753,-7.33853
0.31600,-3.64362,-7.52009
0.32800,-3.60393,-7.37791
0.35000,-3.36954,-7.28322
0.37200,-3.34120,-7.33275
0.38400,-3.42644,-7.47681
0.40600,-3.59334,-7.62582
0.41800,-3.61683,-7.69275
0.44000,-3.56225,-7.97959
0.45200,-3.58244,-8.04276
0.47400,-3.60304,-8.20556
0.49600,-3.57107,-8.26762
0.50800,-3.54770,-8.15897
0.53000,-3.53758,-8.06709
0.54200,-3.49544,-8.01601
0.56400,-3.47415,-7.81783
0.57600,-3.39243,-7.77365
0.59800,-3.35781,-7.56886
0.61000,-3.38730,-7.56276
0.63200,-3.49341,-7.49005
0.65400,-3.60423,-7.40214
0.66600,-3.68797,-7.44411
0.68800,-3.51058,-7.79022
0.70000,-3.65443,-7.77902
0.72200,-3.84366,-7.90636
0.73400,-3.80656,-7.92849
0.75600,-3.61091,-8.02147
0.77800,-3.35725,-8.01404
0.79000,-3.32599,-7.92570
0.81200,-3.27788,-7.91530
0.82400,-3.18026,-8.07629
0.84600,-3.05267,-7.98169
0.85800,-3.01627,-7.93399
0.88000,-2.95367,-7.84647
0.89200,-2.92612,-7.90238
0.91400,-3.06949,-7.78349
0.93600,-3.20195,-7.86348
0.94800,-3.27838,-7.98951
0.97000,-3.28702,-8.03397
0.98200,-3.33630,-8.04018
1.00400,-3.41846,-8.10946
1.01600,-3.40253,-8.11231
1.03800,-3.41063,-8.15176
1.06000,-3.53908,-8.11578
1.07200,-3.55036,-8.14982
1.09900,-3.50547,-8.35895
1.11100,-3.50865,-8.32836
1.12300,-3.47814,-8.40943
1.14500,-3.36412,-8.37834
1.15700,-3.27452,-8.32938
1.17900,-3.12587,-8.29968
1.20100,-2.74814,-8.11198
1.21300,-2.70823,-8.18276
1.23500,-3.30328,-7.99281
1.24700,-3.24725,-8.09072
1.26900,-3.12056,-8.36705
1.28100,-3.07712,-8.52257
1.30300,-2.85793,-8.74845
1.32500,-2.80473,-8.47240
1.33700,-2.69203,-8.40765
1.35900,-2.56039,-8.24237
1.37100,-2.56878,-8.35485
1.39300,-2.89712,-8.16289
1.40500,-2.98884,-8.10810
1.42700,-3.05031,-7.91503
1.43928,-2.95920,-7.47082
1.46100,-2.75366,-6.95983
1.48300,-2.50838,-6.73646
1.49500,-2.44232,-6.33101
1.51700,-2.37803,-6.17783
1.52900,-2.33214,-6.07861
1.55100,-2.12538,-5.71001
1.56300,-2.03923,-4.85017
1.58500,-1.93493,-2.12390
1.60700,-1.21328,-2.51290
1.61900,-0.76762,-2.86177
1.64100,-0.30175,-3.63598
1.65300,-0.16034,-4.64891
1.67500,-0.23453,-6.80786
1.68700,-0.23025,-7.74488
1.70900,-0.08273,-9.28289
1.73100,0.36151,-9.91420
1.74300,0.49953,-9.62084
1.76500,0.79557,-9.20154
1.77700,0.89289,-9.07060
1.79900,0.83657,-8.55733
1.81100,0.85744,-8.32392
1.83300,1.03203,-8.55495
1.84500,1.01001,-8.64513
1.86700,1.04096,-8.78222
1.88900,1.02675,-8.55967
1.90100,1.07245,-8.45579
1.92300,1.23067,-8.66086
1.93500,1.19674,-8.65302
1.95700,1.11168,-8.75989
1.96900,1.06359,-8.91967
1.99100,0.92972,-9.13715
2.01300,0.90646,-9.07556
2.02500,0.88255,-9.03223
2.04700,0.80608,-8.98182
2.05900,0.70448,-9.09148
2.08100,0.50875,-8.96329
2.09300,0.47039,-9.03790
2.11500,0.29757,-9.44810
2.13700,0.14827,-9.56120
2.14900,0.05778,-9.53846
2.17100,0.04193,-9.60940
2.18300,0.05494,-9.85349
2.20500,-0.03880,-10.09064
2.21700,-0.06585,-10.00279
2.23900,-0.06256,-9.89180
2.25100,-0.09253,-9.92313
2.27300,-0.11765,-10.08287
2.29500,-0.11034,-10.01324
2.30700,-0.11949,-9.96390
2.32900,-0.04424,-9.95093
2.34100,-0.05444,-9.85058
2.36300,-0.03829,-9.73825
2.37500,-0.04735,-9.74566
2.39700,-0.01971,-9.79191
2.41900,0.01015,-9.90808
2.43100,-0.00538,-9.96394
2.45300,-0.02957,-10.19714
2.46500,-0.04014,-10.33572
2.48700,-0.06780,-10.49362
2.49900,-0.08718,-10.46187
2.52100,-0.05993,-10.33795
2.54300,-0.07921,-10.07173
2.55500,-0.07719,-9.92489
2.57700,-0.16155,-9.72454
2.58900,-0.20093,-9.71761
2.61100,-0.27451,-9.90608
2.62300,-0.33770,-10.13318
2.64500,-0.49512,-10.59851
2.65700,-0.62009,-10.83770
2.67900,-0.73884,-11.36066
2.70100,-0.83196,-11.88427
2.71300,-0.87298,-12.02781
2.73500,-0.84578,-12.20035
2.74700,-0.86319,-12.28989
2.76900,-0.94412,-12.34507
2.78100,-0.94821,-12.37521
2.80300,-0.89917,-12.30896
2.82500,-0.90954,-12.25316
2.83700,-0.91704,-12.20243
2.85900,-0.90590,-11.96819
2.87100,-0.90406,-11.90683
2.89300,-0.94854,-11.92697
2.90500,-0.95114,-11.92338
2.92700,-0.93947,-11.95537
2.93900,-0.93794,-11.92586
2.96100,-0.92649,-11.80874
2.98300,-0.94127,-11.59105
2.99500,-0.91937,-11.40554
3.01700,-0.89924,-11.28539
3.02900,-0.89993,-11.20088
3.05100,-0.95340,-11.14326
3.06300,-0.96527,-11.05905
3.08500,-0.96984,-10.85530
3.10200,-1.00742,-10.83123
3.12400,-1.04494,-10.80628
3.13600,-1.08773,-10.85982
3.15800,-1.20091,-10.87684
3.17000,-1.34831,-11.20985
3.19200,-2.11494,-15.46014
3.20400,-3.58600,-20.54876
3.22600,-7.57015,-39.45728
3.24800,-11.58443,-46.97958
3.26000,-13.76379,-41.73930
3.28200,-15.47229,-20.24420
3.29400,-16.46773,-8.52361
3.31600,-18.57880,3.63381
3.33800,-20.79626,9.75109
3.35000,-22.17718,13.32721
3.37200,-27.07561,23.67798
3.38400,-31.78342,30.46248
3.40600,-43.83402,39.35353
3.41800,-48.75696,39.41223
3.44000,-51.90630,31.87995
3.45200,-53.75050,26.25800
3.47400,-59.90004,16.44269
3.48600,-64.27937,11.33034
3.50800,-73.59270,2.35896
3.53000,-84.87927,-3.36139
3.54200,-91.52852,-3.17371
3.56400,-101.28781,2.71718
3.57600,-104.98747,6.69594
3.59800,-111.14616,10.95225
3.61000,-115.12760,10.29175
3.63200,-122.47951,3.33237
3.65400,-127.72932,-7.11747
3.66600,-130.17201,-11.99807
3.68800,-136.39763,-15.81087
3.70000,-141.11693,-14.15336
3.72200,-150.37965,-4.71930
3.74400,-158.48143,8.14947
3.75600,-162.51701,14.38189
3.77800,-169.80000,20.57491
3.79000,-173.18539,20.66946
3.81200,-178.28197,16.69804
3.82400,179.22249,13.78401
3.84600,175.40303,9.24713
3.85800,173.52110,7.70792
3.88000,170.25819,6.79639
3.89200,168.54807,7.17280
3.91400,166.16606,9.02370
3.93600,164.00446,11.32704
3.94800,163.02425,12.61858
3.97000,161.88435,14.82936
3.98200,161.79329,15.98493
4.00400,163.02234,18.07435
4.02600,166.09727,20.32090
4.03800,169.04581,21.64639
4.06000,177.44525,24.15802
4.07200,-175.93578,25.18299
4.09400,-160.26126,24.85323
4.10600,-150.31909,22.90780
4.12800,-130.08641,15.31046
4.14000,-118.12941,8.85738
4.16200,-95.39760,-4.57227
4.18400,-73.91834,-13.46563
4.19600,-65.36797,-14.33342
4.21800,-50.20482,-8.15626
4.23000,-41.92959,-0.03805
4.25200,-33.96329,28.92414
4.26400,-41.75803,48.14620
4.28600,-92.81741,57.72573
4.30800,-90.60570,41.32940
4.32000,-81.31422,29.44968
4.34200,-68.94688,15.61961
4.35400,-63.43132,8.75165
4.37600,-61.78909,-9.21807
4.38800,-63.14930,-8.29955
4.41000,-64.67380,5.10675
4.42200,-65.67850,11.63167
4.44400,-56.09087,13.50403
4.46600,-42.61980,-1.97686
4.47800,-37.52534,-12.92520
4.50000,-28.58761,-18.64230
4.51200,-23.08169,-11.07787
4.53400,-17.17752,17.80574
4.54600,-16.95329,39.28513
4.56800,-42.79539,78.21656
4.59000,-167.72878,65.20924
4.60200,-171.76779,58.08662
4.62400,-170.11049,62.33635
4.63600,-163.98126,65.72897
4.65800,-152.43831,61.97504
4.67000,-148.08209,57.45811
4.69200,-132.18004,55.17245
4.71400,-103.44473,53.94963
4.72600,-88.01012,48.58384
4.74800,-76.03996,32.40717
4.76000,-75.36796,23.38224
4.78200,-77.85715,12.38219
4.79400,-79.63667,10.30526
4.81600,-81.61308,11.72109
4.82800,-82.78653,13.51609
4.85000,-84.92968,16.70078
4.87200,-86.00002,20.32909
4.88400,-87.25871,23.06930
4.90600,-96.74366,27.32653
4.91800,-106.70986,25.49676
4.94000,-120.15850,10.92649
4.95200,-122.08421,0.79101
4.97400,-120.72623,-13.14335
4.99600,-121.14040,-19.99796
5.00800,-124.72177,-20.04326
5.03000,-135.55431,-12.04706
5.04200,-141.60957,-1.95200
5.06400,-146.90289,25.30362
5.07600,-145.82535,40.42067
5.10300,-137.41284,60.54960
5.11500,-137.79779,62.42869
5.13700,-146.49475,58.38054
5.14900,-150.87132,55.02747
5.17100,-156.91930,48.43046
5.18300,-159.59085,43.57941
5.20500,-162.63312,33.35524
5.21700,-162.96417,29.32251
5.23900,-161.60062,27.51904
5.25100,-160.04428,28.62571
5.27300,-156.22559,30.43386
5.29500,-151.84732,29.14070
5.30700,-149.07460,26.75107
5.32900,-142.66699,21.32008
5.34100,-138.20824,18.76760
5.36300,-128.47282,15.31755
5.38500,-117.84816,12.76026
5.39700,-112.02938,11.78136
5.41900,-102.22337,11.39121
5.43100,-97.71246,12.15548
5.45300,-91.52993,14.71313
5.46500,-89.99250,16.15461
5.48700,-91.68446,18.02252
5.49900,-93.14610,18.82582
5.52100,-91.48112,22.07659
5.53300,-85.85547,24.29453
5.55500,-71.71991,22.61864
5.57700,-63.34650,17.97577
5.58900,-61.83644,17.81061
5.61100,-60.32922,20.58572
5.62300,-58.29844,22.34526
5.64500,-53.04776,25.96642
5.66700,-48.73679,31.33495
5.67900,-47.65726,35.19037
5.70100,-47.53705,42.17573
5.71300,-47.69654,45.25700
5.73500,-47.81013,49.57797
5.74700,-47.66654,51.13377
5.76900,-47.05079,52.39876
5.78100,-46.67019,52.34180
5.80300,-45.85328,50.93484
5.82500,-44.88692,48.14766
5.83700,-44.55337,46.11969
5.85900,-45.18095,42.49527
5.87100,-46.42938,40.94028
5.89300,-49.99366,38.69297
5.90500,-52.33170,37.55560
5.92700,-56.81013,35.18570
5.93900,-59.10022,33.60644
5.96100,-62.80641,30.27723
5.98300,-66.00941,26.64783
5.99500,-67.61161,24.63724
6.01700,-70.67157,21.24442
6.02900,-72.65307,19.87780
6.05100,-77.10039,18.73746
6.07300,-82.36831,18.90684
6.08500,-85.65775,19.30288
6.10700,-92.35072,19.59591
6.11900,-96.06796,19.01241
6.14100,-102.18913,16.36166
6.15300,-104.84225,14.46876
6.17500,-108.69622,11.31132
6.18700,-110.54227,10.21649
6.20900,-113.89904,9.74056
6.23100,-117.34745,10.81336
6.24300,-119.32018,11.89938
6.26500,-123.24055,13.91946
6.27700,-125.56174,14.57081
6.29900,-130.01990,14.46687
6.31100,-132.33195,13.80257
6.33300,-136.11072,11.96311
6.34500,-137.79462,11.06354
6.36700,-140.36505,9.90055
6.38900,-142.37254,9.55074
6.40100,-143.17371,9.83276
6.42300,-144.06230,11.08381
6.43500,-144.24136,11.95755
6.45700,-143.88310,13.79324
6.46900,-143.25279,14.80626
6.49100,-141.29214,16.46494
6.51300,-138.12152,17.89642
6.52500,-136.36562,18.18972
6.54700,-131.92758,19.33977
6.55900,-128.98941,19.64690
6.58100,-123.12447,18.59552
6.59300,-119.79476,17.22104
6.61500,-113.37196,14.30459
6.63700,-107.06343,11.82516
6.64900,-103.92785,11.05006
6.67100,-99.36087,11.02013
6.68300,-97.61734,11.68591
6.70500,-95.75732,13.61392
6.71700,-95.01249,14.86431
6.73900,-93.21314,17.49048
6.75100,-91.35452,19.07180
6.77300,-85.12836,21.13356
6.79500,-76.72883,19.93348
6.80700,-72.55833,17.65345
6.82900,-67.52607,12.97528
6.84100,-65.66908,11.27893
6.86300,-62.45970,10.46899
6.87500,-60.62967,11.33805
6.89700,-57.65266,15.32476
6.91900,-55.80736,21.35383
6.93100,-55.46158,25.21095
6.95300,-55.93260,32.19042
6.96500,-56.60381,35.67258
6.98700,-58.60889,41.51292
6.99900,-60.00273,44.22227
7.02100,-62.34841,47.75694
7.03300,-63.13792,48.79813
7.05500,-63.88001,49.47433
7.07700,-64.75893,49.25457
7.08900,-65.57331,48.69352
7.10600,-67.25065,47.35993
7.12800,-69.72240,45.02329
7.14000,-70.88486,43.30994
7.16200,-72.42821,39.25705
7.18400,-73.51740,34.54337
7.19600,-73.96364,31.82158
7.21800,-74.70390,26.77751
7.23000,-75.33082,24.12128
7.25200,-77.38139,19.90569
7.26400,-78.97919,18.21101
7.28600,-82.53268,16.28710
7.29800,-84.71568,15.72052
7.32000,-89.03895,15.02406
7.34200,-93.64425,13.85082
7.35400,-96.11977,12.65812
7.37600,-100.09389,9.60092
7.38800,-101.88815,7.76477
7.41000,-104.85790,4.68158
7.42200,-106.51247,3.38763
7.44400,-109.85450,1.88056
7.46600,-113.54905,1.23751
7.47800,-115.69462,1.26071
7.50000,-119.70462,1.75751
7.51200,-121.83300,2.14352
7.53400,-125.50597,2.89292
7.54600,-127.30961,3.26927
7.56800,-130.21289,3.83479
7.59000,-132.64882,4.28709
7.60200,-133.71562,4.50641
7.62400,-135.19630,4.92928
7.63600,-135.72655,5.22097
7.65800,-136.18436,5.89398
7.67000,-136.13899,6.31464
7.69200,-135.47104,7.05664
7.70400,-134.77086,7.36597
7.72600,-132.79730,7.63452
7.74800,-130.18187,7.42679
7.76000,-128.42567,7.05994
7.78200,-124.60159,6.15372
7.79400,-122.23672,5.62575
7.81600,-117.50214,4.83341
7.83800,-112.50146,4.43479
7.85000,-109.74586,4.44378
7.87200,-104.88966,4.93549
7.88400,-102.47665,5.50712
7.90600,-98.65089,7.09200
7.91800,-96.92323,8.22190
7.94000,-94.20719,10.61989
7.95200,-92.79899,11.99736
7.97400,-89.86393,14.46988
7.99600,-86.13044,16.43344
8.00800,-83.74061,17.06668
8.03000,-79.25784,17.39716
8.04200,-77.00335,17.34126
8.06400,-73.36810,17.46216
8.07600,-71.66592,17.89169
8.09800,-68.98938,19.60860
8.11000,-67.85931,21.00882
8.13200,-66.35240,24.05459
8.15400,-65.31302,27.34163
8.16600,-64.98396,29.15347
8.18800,-64.74272,32.26528
8.20000,-64.77757,33.78257
8.22200,-65.20598,36.21352
8.23400,-65.57613,37.22209
8.25600,-66.27662,38.35543
8.27800,-67.11739,38.84017
8.29000,-67.63025,38.72836
8.31200,-68.47002,37.77945
8.32400,-68.98922,36.94997
8.34600,-69.97168,34.88528
8.35800,-70.58360,33.53320
8.38000,-72.08994,30.78168
8.39200,-73.01917,29.15080
8.41400,-74.87691,25.98795
8.43600,-76.95852,22.87808
8.44800,-78.20650,21.27700
8.47000,-80.74878,18.65152
8.48200,-82.29663,17.43111
8.50400,-85.48728,15.53517
8.51600,-87.35152,14.60670
8.53800,-90.89207,12.92911
8.56000,-94.36774,11.07699
8.57200,-96.16195,9.94487
8.59400,-99.25973,7.69576
8.60600,-100.85075,6.45463
8.62800,-103.70248,4.30264
8.64000,-105.27752,3.27564
8.66200,-108.28684,1.79754
8.68400,-111.39270,0.78198
8.69600,-113.13216,0.42519
8.71800,-116.31060,0.05306
8.73000,-117.97440,-0.05860
8.75200,-120.86552,-0.19680
8.76400,-122.30886,-0.21750
8.78600,-124.64585,-0.07628
8.80800,-126.63868,0.22264
8.82000,-127.51637,0.44161
8.84200,-128.72514,0.87763
8.85400,-129.15999,1.11862
8.87600,-129.53122,1.64636
8.88800,-129.47632,1.99614
8.91000,-128.88411,2.66934
8.92200,-128.26764,2.99752
8.94400,-126.56486,3.33759
8.96600,-124.37200,3.33225
8.97800,-122.90209,3.24442
9.00000,-119.74575,3.03398
9.01200,-117.83358,2.93580
9.03400,-114.02142,2.92171
9.04600,-111.84065,3.02394
9.06800,-107.81270,3.46246
9.09000,-103.91134,4.29875
9.10700,-101.09560,5.26680
9.11900,-99.30009,6.14847
9.14100,-96.36550,8.10567
9.15300,-94.91865,9.27467
9.17500,-92.38382,11.44765
9.18700,-90.92303,12.59063
9.20900,-87.93123,14.43609
9.22128,-86.09514,15.23833
9.24300,-82.75941,16.21926
9.26500,-79.54260,16.87705
9.27700,-77.94679,17.21784
9.29900,-75.32340,18.08626
9.31100,-74.09122,18.77542
9.33300,-72.22544,20.42359
9.34500,-71.41989,21.48717
9.36700,-70.28931,23.61732
9.38900,-69.50817,25.79885
9.40100,-69.26906,26.95262
9.42300,-69.16346,28.91879
9.43500,-69.27640,29.86640
9.45700,-69.77531,31.27038
9.46900,-70.14983,31.77549
9.49100,-70.98376,32.18085
9.51300,-71.87828,32.01624
9.52500,-72.35532,31.61190
9.54700,-73.23485,30.32325
9.55900,-73.74338,29.36194
9.58100,-74.85236,27.25823
9.59300,-75.55762,25.98012
9.61500,-77.03835,23.41666
9.62700,-77.97470,21.97210
9.64900,-79.97179,19.41320
9.67100,-82.18813,17.05684
9.68300,-83.48971,15.89876
9.70500,-86.13084,14.04566
9.71700,-87.68038,13.15524
9.73900,-90.64843,11.64950
9.76100,-93.63038,10.12198
9.77300,-95.20580,9.22816
9.79500,-97.95811,7.42674
9.80700,-99.37874,6.38807
9.82900,-101.89883,4.45119
9.84100,-103.25290,3.45597
9.86300,-105.75488,1.91970
9.87529,-107.18269,1.26355
9.89700,-109.78075,0.37761
9.91900,-112.44997,-0.27088
9.93100,-113.88044,-0.51098
9.95300,-116.41942,-0.78148
9.96500,-117.71537,-0.81185
9.98700,-119.86198,-0.66323
9.99900,-120.87343,-0.51458
10.02100,-122.42568,-0.21488
10.03300,-123.07563,-0.05367
10.05500,-123.89194,0.28417
10.07700,-124.32240,0.67308
10.08900,-124.32398,0.92704
10.11100,-123.89716,1.41682
10.12300,-123.43056,1.64267
10.14500,-122.11337,1.96115
10.15700,-121.14960,2.04604
10.17900,-118.96230,2.01811
10.20100,-116.41021,1.90247
10.21300,-114.85864,1.87527
10.23500,-111.79295,1.99797
10.24700,-110.04917,2.20291
10.26900,-106.79182,2.83790
10.28100,-105.04006,3.32045
10.30300,-101.96214,4.48585
10.32500,-99.06847,5.93056
10.33700,-97.59607,6.83750
10.35900,-95.01501,8.64159
10.37100,-93.64948,9.63017
10.39300,-91.17976,11.36442
10.40500,-89.81786,12.24908
10.42700,-87.23857,13.70232
10.44900,-84.57227,14.91170
10.46100,-83.15115,15.47343
10.48300,-80.71375,16.43550
10.49500,-79.49946,16.96906
10.51700,-77.49446,18.05026
10.52900,-76.54314,18.72717
10.55100,-75.08974,20.13363
10.56300,-74.45030,20.94732
10.58500,-73.51804,22.44856
10.60700,-72.87058,23.90109
10.61900,-72.66136,24.63460
10.64100,-72.55346,25.85132
10.65300,-72.64988,26.40112
10.67500,-73.04579,27.08178
10.68700,-73.34676,27.24238
10.70900,-74.03877,27.12257
10.72100,-74.44434,26.81479
10.74300,-75.20459,25.83157
10.76500,-76.04167,24.50399
10.77700,-76.59503,23.63856
10.79900,-77.84085,21.84491
10.81100,-78.63046,20.77860
10.83300,-80.28223,18.73963
10.84500,-81.28849,17.63864
10.86700,-83.31161,15.70324
10.88900,-85.48815,13.91674
10.90100,-86.75145,13.01622
10.92300,-89.20716,11.48849
10.93500,-90.58556,10.69643
10.95700,-93.12132,9.28369
10.96900,-94.47779,8.51007
10.99100,-96.91628,7.04717
11.01300,-99.27007,5.53338
11.02500,-100.51516,4.71224
11.04700,-102.75165,3.26456
11.05900,-103.95897,2.54629
11.08100,-106.18487,1.41844
11.09300,-107.39449,0.91871
11.11000,-109.09977,0.35764
11.13200,-111.27306,-0.17673
11.15400,-113.35163,-0.50865
11.16600,-114.40730,-0.60510
11.18800,-116.16772,-0.63711
11.20000,-117.00648,-0.59425
11.22200,-118.30655,-0.39357
11.23400,-118.86130,-0.22672
11.25600,-119.55188,0.15950
11.26828,-119.74747,0.39103
11.29000,-119.72738,0.77116
11.31200,-119.31751,1.10146
11.32400,-118.89191,1.23999
11.34600,-117.72624,1.43781
11.35800,-116.88850,1.51886
11.38000,-115.03075,1.61641
11.39200,-113.86044,1.66945
11.41400,-111.47182,1.85724
11.43600,-108.90518,2.19620
11.44800,-107.45252,2.47549
11.47000,-104.74009,3.17886
11.48200,-103.28090,3.67474
11.50400,-100.67979,4.79587
11.51600,-99.31686,5.50545
11.53800,-96.93678,6.93956
11.56000,-94.66386,8.47588
11.57200,-93.46235,9.33445
11.59400,-91.28420,10.87666
11.60600,-90.10023,11.66570
11.62800,-87.91457,13.00455
11.64000,-86.73129,13.66671
11.66200,-84.61731,14.78566
11.67400,-83.53707,15.36238
11.69600,-81.68597,16.40331
11.71800,-80.00426,17.46264
11.73000,-79.19524,18.05976
11.75200,-77.92519,19.20489
11.76400,-77.36380,19.83522
11.78600,-76.57079,20.96371
11.79800,-76.26986,21.53289
11.82000,-75.92594,22.45505
11.84200,-75.78724,23.20272
11.85400,-75.80262,23.48874
11.87600,-75.97361,23.75105
11.88800,-76.14366,23.73609
11.91000,-76.58031,23.40889
11.92200,-76.89327,23.07770
11.94400,-77.59917,22.20186
11.96600,-78.44605,21.11169
11.97800,-79.01039,20.43080
12.00000,-80.23824,19.03408
12.01200,-80.99211,18.21414
12.03400,-82.54338,16.64079
12.04600,-83.46456,15.77394
12.06800,-85.29295,14.21141
12.08000,-86.35116,13.39037
12.10200,-88.39301,11.92514
12.12400,-90.51218,10.51733
12.13600,-91.69088,9.76891
12.15800,-93.86284,8.42700
12.17000,-95.03595,7.71057
12.19200,-97.15370,6.41893
12.21400,-99.22665,5.15549
12.22600,-100.33363,4.48802
12.24800,-102.33401,3.33126
12.26000,-103.40260,2.74828
12.28200,-105.32868,1.77997
12.29400,-106.35936,1.32896
12.31600,-108.19041,0.66208
12.32800,-109.14902,0.38682
12.35000,-110.81130,0.01897
12.37200,-112.34119,-0.20073
12.38400,-113.08983,-0.25077
12.40600,-114.26622,-0.19854
12.41800,-114.78520,-0.11345
12.44000,-115.47421,0.09096
12.45200,-115.70221,0.21044
12.47400,-115.83043,0.44291
12.48600,-115.74161,0.58337
12.50800,-115.26414,0.86186
12.53000,-114.48971,1.15276
12.54200,-113.90372,1.30859
12.56400,-112.54398,1.56882
12.57600,-111.66810,1.72685
12.59800,-109.83495,2.07904
12.61000,-108.73912,2.30323
12.63200,-106.58121,2.80933
12.65400,-104.35571,3.45102
12.66600,-103.12811,3.87445
12.68800,-100.88708,4.80098
12.70000,-99.68839,5.39187
12.72200,-97.56200,6.61222
12.73400,-96.44331,7.32541
12.75600,-94.44526,8.69273
12.76800,-93.37506,9.43445
12.79000,-91.45478,10.75329
12.81200,-89.57364,12.00983
12.82400,-88.56417,12.66561
12.84600,-86.74269,13.78489
12.85800,-85.79339,14.34625
12.88000,-84.17068,15.32016
12.89200,-83.37103,15.83747
12.91400,-82.02513,16.76826
12.93600,-80.80828,17.68255
12.94800,-80.23953,18.16578
12.97000,-79.38431,19.03059
12.98200,-79.03206,19.47040
13.00400,-78.58327,20.20026
13.01600,-78.45092,20.53477
13.03800,-78.36956,21.01629
13.06000,-78.44736,21.31144
13.07200,-78.57347,21.34613
13.09400,-78.91591,21.18096
13.11100,-79.26233,20.87103
13.12300,-79.56205,20.52837
13.14500,-80.24619,19.70067
13.15700,-80.69907,19.16514
13.17900,-81.70383,18.02720
13.20100,-82.86818,16.78341
13.21300,-83.57965,16.06736
13.23500,-85.00325,14.71740
13.24700,-85.83796,13.98293
13.26900,-87.47356,12.65440
13.28100,-88.42242,11.94716
13.30300,-90.24889,10.70138
13.32500,-92.10946,9.50113
13.33700,-93.13113,8.85870
13.35900,-95.01189,7.67208
13.37100,-96.02022,7.02378
13.39300,-97.84631,5.84048
13.40500,-98.81613,5.21805
13.42700,-100.56631,4.13700
13.43900,-101.49619,3.61038
13.46100,-103.17973,2.76530
13.48300,-104.82600,2.03110
13.49500,-105.69322,1.69126
13.51700,-107.21537,1.17237
13.52900,-107.99797,0.95659
13.55100,-109.30728,0.67250
13.56300,-109.94214,0.56693
13.58500,-110.95101,0.45727
13.60700,-111.76790,0.44383
13.61900,-112.10217,0.48365
13.64100,-112.49342,0.63543
13.65300,-112.57507,0.75243
13.67500,-112.48272,1.00064
13.68700,-112.29610,1.14473
13.70900,-111.69659,1.41992
13.72100,-111.22894,1.57002
13.74300,-110.14536,1.85133
13.76500,-108.85794,2.16353
13.77700,-108.05629,2.36788
13.79900,-106.42838,2.80970
13.81100,-105.47092,3.10151
13.83300,-103.64025,3.73291
13.85500,-101.76909,4.49748
13.86700,-100.74097,4.97709
13.88900,-98.85496,5.95125
13.90100,-97.84509,6.52280
13.92300,-96.03401,7.64013
13.93500,-95.07570,8.27934
13.95700,-93.35335,9.45859
13.96900,-92.42582,10.09239
13.99100,-90.78548,11.19693
14.01300,-89.21484,12.27235
14.02500,-88.37677,12.85651
14.04700,-86.86469,13.87438
14.05900,-86.08861,14.38986
14.08100,-84.80131,15.27566
14.09300,-84.19374,15.73883
14.11500,-83.20545,16.57276
14.12700,-82.72124,17.00924
14.14900,-81.94261,17.74673
14.17100,-81.31432,18.39200
14.18300,-81.06671,18.68662
14.20500,-80.76551,19.10956
14.21700,-80.67539,19.27345
14.23900,-80.65629,19.44095
14.25100,-80.72609,19.44289
14.27300,-80.97682,19.27064
14.29500,-81.35083,18.90946
14.30700,-81.61391,18.62065
14.32900,-82.21355,17.94046
14.34100,-82.60871,17.49696
14.36300,-83.47523,16.56202
14.37500,-84.01884,15.99425
14.39700,-85.13864,14.88365
14.40928,-85.82295,14.24071
14.43200,-87.20072,13.03227
14.45400,-88.61352,11.88440
14.46600,-89.42923,11.26503
14.48800,-90.99938,10.14163
14.50000,-91.87769,9.54065
14.52200,-93.50773,8.47243
14.53400,-94.39714,7.89621
14.55600,-96.01977,6.84605
14.56800,-96.88918,6.28073
14.59000,-98.46384,5.27252
14.61200,-99.99155,4.33155
14.62400,-100.80077,3.86864
14.64600,-102.24911,3.10633
14.65800,-103.01565,2.73765
14.68000,-104.36840,2.13135
14.69200,-105.06987,1.86401
14.71400,-106.26246,1.46558
14.73600,-107.34505,1.16684
14.74800,-107.86656,1.05229
14.77000,-108.68242,0.91227
14.78200,-109.03968,0.88227
14.80400,-109.52425,0.91637
14.81600,-109.69033,0.97744
14.83800,-109.79195,1.16403
14.86000,-109.68498,1.37286
14.87200,-109.50952,1.48950
14.89400,-108.98036,1.71136
14.90600,-108.58428,1.85220
14.92800,-107.67220,2.17153
14.94000,-107.08021,2.37535
14.96200,-105.85888,2.81152
14.97400,-105.12057,3.08625
14.99600,-103.66096,3.66904
15.01800,-102.10376,4.30974
15.03000,-101.22960,4.68476
15.05200,-99.61718,5.45402
15.06400,-98.73854,5.93094
15.08600,-97.14161,6.90487
15.11300,-95.20544,8.16080
15.12500,-94.37040,8.72546
15.13700,-93.56605,9.29399
15.15900,-92.12371,10.35811
15.17100,-91.35554,10.92653
15.19300,-89.98943,11.92266
15.20500,-89.28200,12.44107
15.22700,-88.03718,13.35137
15.23900,-87.39426,13.81306
15.26100,-86.28011,14.60448
15.28300,-85.27036,15.33881
15.29500,-84.78790,15.72113
15.31700,-84.01749,16.36950
15.32900,-83.66497,16.68176
15.35100,-83.14329,17.17813
15.36300,-82.93285,17.40556
15.38500,-82.68626,17.72475
15.40700,-82.54747,17.92804
15.41900,-82.53536,17.96686
15.44100,-82.63943,17.90505
15.45300,-82.75549,17.79485
15.47500,-83.09155,17.46546
15.48700,-83.33501,17.21095
15.50900,-83.89282,16.63037
15.52100,-84.26061,16.24831
15.54300,-85.05457,15.43682
15.56500,-85.96198,14.54376
15.57700,-86.50324,14.02629
15.59900,-87.58214,13.03908
15.61100,-88.21508,12.48257
15.63300,-89.45609,11.45535
15.64500,-90.17098,10.89635
15.66700,-91.53829,9.88101
15.68900,-92.94262,8.89487
15.70100,-93.71487,8.36483
15.72300,-95.13695,7.40585
15.73500,-95.90517,6.90376
15.75700,-97.29362,6.01904
15.76900,-98.02898,5.55718
15.79100,-99.34715,4.75619
15.81300,-100.62099,4.00359
15.82500,-101.29526,3.62595
15.84700,-102.47890,2.99109
15.85900,-103.08842,2.69512
15.88100,-104.14254,2.23359
15.89300,-104.67107,2.03397
15.91500,-105.55406,1.75872
15.93700,-106.31808,1.58108
15.94900,-106.66528,1.52707
15.97100,-107.16782,1.48874
15.98300,-107.35736,1.50221
16.00500,-107.54250,1.58201
16.01700,-107.55315,1.65171
16.03900,-107.39583,1.82241
16.05100,-107.21760,1.93402
16.07300,-106.71098,2.19749
16.09500,-106.04347,2.51655
16.10700,-105.59761,2.71331
16.12900,-104.62351,3.11753
16.14100,-104.03107,3.35330
16.16300,-102.83878,3.83387
16.17500,-102.14245,4.12953
16.19700,-100.80637,4.76008
16.20900,-100.05899,5.14080
16.23100,-98.67245,5.91156
16.25300,-97.29505,6.73652
16.26500,-96.55378,7.21162
16.28700,-95.21759,8.13003
16.29900,-94.50694,8.64133
16.32100,-93.23620,9.59508
16.33300,-92.55840,10.10851
16.35500,-91.34930,11.01808
16.37700,-90.18972,11.88620
16.38900,-89.58737,12.34066
16.41100,-88.53618,13.12949
16.42300,-87.99219,13.53009
16.44500,-87.06200,14.21055
16.45700,-86.61322,14.54880
16.47900,-85.89041,15.12509
16.50100,-85.27607,15.65472
16.51300,-85.00276,15.91037
16.53500,-84.61089,16.31605
16.54700,-84.45683,16.49516
16.56900,-84.29478,16.70934
16.58100,-84.26193,16.77138
16.60300,-84.29811,16.78238
16.61500,-84.36903,16.72779
16.63700,-84.59383,16.49134
16.65900,-84.92249,16.13619
16.67100,-85.15749,15.87453
16.69300,-85.69469,15.29613
16.70500,-86.04411,14.93413
16.72700,-86.77528,14.18500
16.73900,-87.22159,13.74282
16.76100,-88.13102,12.88657
16.78300,-89.11262,12.01426
16.79500,-89.68935,11.53664
16.81700,-90.81882,10.66423
16.82900,-91.46124,10.18674
16.85100,-92.66880,9.30916
16.86300,-93.33563,8.83297
16.88500,-94.55919,7.96645
16.90700,-95.76639,7.12751
16.91900,-96.41470,6.67343
16.94100,-97.57299,5.86271
16.95300,-98.19418,5.44434
16.97500,-99.30849,4.74166
16.98700,-99.88978,4.39216
17.00900,-100.91518,3.79655
17.02100,-101.45226,3.50122
17.04300,-102.38413,3.03906
17.06500,-103.25095,2.66724
17.07700,-103.68448,2.51791
17.09900,-104.38527,2.31331
17.11600,-104.84972,2.20412
17.12800,-105.10558,2.16184
17.15000,-105.44859,2.13996
17.16200,-105.55467,2.14831
17.18400,-105.59566,2.20829
17.20600,-105.49442,2.32397
17.21800,-105.35473,2.41813
17.24000,-104.94053,2.61992
17.25200,-104.64839,2.75016
17.27400,-103.99487,3.04780
17.29600,-103.22256,3.42434
17.30800,-102.73659,3.66317
17.33000,-101.76543,4.13675
17.34200,-101.20026,4.40766
17.36400,-100.10551,4.97206
17.37600,-99.47817,5.32133
17.39800,-98.28881,6.01890
17.41000,-97.63779,6.40963
17.43200,-96.45719,7.15876
17.45400,-95.30222,7.94655
17.46600,-94.67272,8.40230
17.48800,-93.53029,9.25121
17.50000,-92.93078,9.70632
17.52200,-91.88499,10.51593
17.53400,-91.33353,10.95054
17.55600,-90.35549,11.71280
17.57800,-89.43310,12.43861
17.59000,-88.96954,12.80780
17.61200,-88.18822,13.44676
17.62400,-87.80075,13.76768
17.64600,-87.15182,14.31068
17.65800,-86.84264,14.57684
17.68000,-86.37082,15.00143
17.69200,-86.16799,15.18919
17.71400,-85.90150,15.46595
17.73600,-85.72496,15.67741
17.74800,-85.68580,15.74329
17.77000,-85.69936,15.76006
17.78200,-85.75700,15.71208
17.80400,-85.95065,15.53227
17.81600,-86.09493,15.38267
17.83800,-86.42854,15.01343
17.85028,-86.67950,14.75283
17.87200,-87.23405,14.21534
17.89400,-87.86207,13.60089
17.90600,-88.24168,13.23270
17.92800,-89.00798,12.50744
17.94000,-89.46761,12.08587
17.96200,-90.37416,11.29471
17.97400,-90.88868,10.86487
17.99600,-91.88103,10.07580
18.01800,-92.90866,9.30227
18.03000,-93.48832,8.87837
18.05200,-94.55450,8.09707
18.06400,-95.13921,7.68106
18.08600,-96.19403,6.94444
18.09800,-96.75320,6.56501
18.12000,-97.74764,5.90351
18.14200,-98.69463,5.24278
18.15400,-99.19566,4.90343
18.17600,-100.07568,4.31854
18.18800,-100.53195,4.04224
18.21000,-101.31372,3.60930
18.22200,-101.70554,3.40659
18.24400,-102.37754,3.10259
18.25600,-102.70380,2.97368
18.27800,-103.21142,2.81892
18.30000,-103.60924,2.73225
18.31200,-103.76752,2.70084
18.33400,-103.94624,2.67390
18.34600,-103.97075,2.68707
18.36800,-103.89628,2.78298
18.38000,-103.78482,2.86644
18.40200,-103.43831,3.04505
18.42400,-102.98248,3.25717
18.43600,-102.68001,3.39276
18.45800,-102.02260,3.71384
18.47000,-101.61176,3.92665
18.49200,-100.78074,4.35382
18.50400,-100.29953,4.60573
18.52600,-99.37380,5.12388
18.54800,-98.39162,5.71578
18.56000,-97.84047,6.05916
18.58200,-96.81038,6.71634
18.59400,-96.25903,7.08522
18.61600,-95.24595,7.80117
18.62800,-94.69817,8.20284
18.65000,-93.70288,8.94358
18.66200,-93.17859,9.34698
18.68400,-92.25988,10.07677
18.70600,-91.37489,10.79932
18.71800,-90.91381,11.17718
18.74000,-90.11805,11.82903
18.75200,-89.72308,12.16487
18.77400,-89.06953,12.75895
18.78600,-88.73535,13.05953
18.80800,-88.18118,13.55710
18.83000,-87.71197,13.98216
18.84200,-87.50308,14.18977
18.86400,-87.18230,14.52003
18.87600,-87.04288,14.66036
18.89800,-86.87189,14.83704
18.91000,-86.83773,14.88558
18.93200,-86.86024,14.90186
18.95400,-86.95253,14.84659
18.96600,-87.03897,14.77224
18.98800,-87.29037,14.53625
19.00000,-87.48027,14.35956
19.02200,-87.89870,13.98293
19.03400,-88.16031,13.73788
19.05600,-88.72386,13.21297
19.06800,-89.07376,12.89874
19.09000,-89.77774,12.27985
19.11700,-90.67056,11.48378
19.12900,-91.09006,11.11390
19.14100,-91.54341,10.73054
19.16300,-92.41278,10.00754
19.17500,-92.89115,9.61513
19.19700,-93.78624,8.89368
19.20900,-94.27462,8.50631
19.23100,-95.18526,7.79754
19.25300,-96.09583,7.10349
19.26500,-96.57651,6.74523
19.28700,-97.43723,6.12812
19.29900,-97.89180,5.80548
19.32100,-98.69455,5.25243
19.33300,-99.11069,4.96026
19.35500,-99.83203,4.49016
19.37700,-100.49569,4.09583
19.38900,-100.82186,3.90130
19.41100,-101.36217,3.58956
19.42300,-101.61808,3.44732
19.44500,-102.01266,3.25801
19.45700,-102.18385,3.19055
19.47900,-102.40030,3.14608
19.50100,-102.51289,3.14448
19.51300,-102.52103,3.15416
19.53500,-102.41467,3.20579
19.54700,-102.30032,3.24606
19.56900,-102.00437,3.37751
19.58100,-101.78687,3.49983
19.60300,-101.29336,3.77168
19.61500,-100.97791,3.93146
19.63700,-100.33092,4.26281
19.65900,-99.62461,4.65273
19.67100,-99.21091,4.90531
19.69300,-98.38859,5.42555
19.70500,-97.92716,5.71309
19.72700,-97.05823,6.25112
19.73900,-96.58546,6.56965
19.76100,-95.70748,7.21780
19.78300,-94.81497,7.89686
19.79500,-94.33311,8.26560
19.81700,-93.48919,8.92434
19.82900,-93.04138,9.28127
19.85100,-92.24053,9.93724
19.86300,-91.82858,10.29498
19.88500,-91.12248,10.93232
19.89729,-90.75813,11.26923
19.91900,-90.15824,11.82468
19.94100,-89.60071,12.35676
19.95300,-89.33209,12.62821
19.97500,-88.89550,13.08563
19.98700,-88.68637,13.30870
20.00900,-88.37049,13.65775
20.03100,-88.11667,13.93683
20.04300,-88.03111,14.04951
20.06500,-87.93524,14.20340
20.07700,-87.91143,14.25026
20.09900,-87.94110,14.26669
20.11100,-87.99340,14.23801
20.13300,-88.17985,14.10587
20.14500,-88.31806,13.99298
20.16700,-88.63984,13.72960
20.18900,-89.03680,13.40060
20.20100,-89.28806,13.18334
20.22300,-89.80550,12.71946
20.23500,-90.11206,12.43826
20.25700,-90.72591,11.87103
20.26900,-91.07405,11.55594
20.29100,-91.75768,10.94227
20.30300,-92.15204,10.58921
20.32500,-92.91785,9.94505
20.34700,-93.70278,9.30456
20.35900,-94.13566,8.96848
20.38100,-94.93401,8.34865
20.39300,-95.36934,8.01821
20.41500,-96.15897,7.43578
20.42700,-96.57339,7.13216
20.44900,-97.30295,6.59137
20.47100,-97.99316,6.06258
20.48300,-98.35236,5.77995
20.50500,-98.95557,5.28043
20.51700,-99.25407,5.01640
20.53900,-99.76513,4.57726
20.55100,-100.01830,4.37143
20.57300,-100.43618,4.06838
20.59500,-100.80033,3.84311
20.60700,-100.96792,3.74727
20.62900,-101.21493,3.62658
20.64100,-101.31091,3.59294
20.66300,-101.40764,3.58304
20.67500,-101.40618,3.61404
20.69700,-101.30188,3.68500
20.70900,-101.19299,3.72904
20.73100,-100.88184,3.85439
20.75300,-100.47007,4.03232
20.76500,-100.19599,4.15225
20.78700,-99.61974,4.38451
20.79900,-99.27625,4.53552
20.82100,-98.59747,4.87887
20.83300,-98.20350,5.09714
20.85500,-97.46594,5.54139
20.87700,-96.73572,6.01708
20.88900,-96.34558,6.30602
20.91100,-95.61633,6.88102
20.92300,-95.21605,7.21505
20.94500,-94.49178,7.84117
20.95700,-94.10255,8.17790
20.97900,-93.39395,8.79210
21.00100,-92.68396,9.39153
21.01300,-92.30550,9.70556
21.03500,-91.65689,10.26615
21.04700,-91.32528,10.56541
21.06900,-90.76139,11.10621
21.08100,-90.47793,11.38760
21.10300,-90.02990,11.88046
21.12000,-89.73843,12.24219
21.14200,-89.41877,12.67657
21.15400,-89.27510,12.88756
21.17600,-89.07108,13.22590
21.18800,-89.00005,13.37758
21.21000,-88.92161,13.59289
21.22200,-88.90372,13.66648
21.24400,-88.92535,13.72910
21.25600,-88.96629,13.72401
21.27800,-89.09329,13.64908
21.30000,-89.27042,13.50400
21.31200,-89.40270,13.39438
21.33400,-89.72620,13.13757
21.34600,-89.93890,12.97423
21.36800,-90.37688,12.62802
21.38000,-90.64042,12.40946
21.40200,-91.17552,11.95813
21.42400,-91.75084,11.48663
21.43600,-92.07784,11.21637
21.45800,-92.68903,10.69472
21.47000,-93.03014,10.39160
21.49200,-93.69177,9.78797
21.50400,-94.06251,9.46349
21.52600,-94.73494,8.89061
21.54800,-95.38820,8.32459
21.56000,-95.74162,8.01298
21.58200,-96.40481,7.44059
21.59400,-96.76079,7.14770
21.61600,-97.38246,6.66659
21.62800,-97.69241,6.42202
21.65000,-98.23765,5.95986
21.66200,-98.52260,5.71698
21.68400,-98.99876,5.31145
21.70600,-99.40317,4.97603
21.71800,-99.58768,4.81012
21.74000,-99.87905,4.51633
21.75200,-100.01396,4.37808
21.77400,-100.20028,4.18128
21.78600,-100.25519,4.11510
21.80800,-100.29200,4.02845
21.83000,-100.28176,3.96407
21.84200,-100.23354,3.95880
21.86400,-100.08066,4.01765
21.87600,-99.95020,4.08786
21.89800,-99.64430,4.24561
21.91000,-99.44533,4.33469
21.93200,-99.00393,4.54630
21.94400,-98.72961,4.69040
21.96600,-98.16524,4.99858
21.98800,-97.55066,5.31762
22.00000,-97.20201,5.50050
22.02200,-96.53748,5.86062
22.03400,-96.17932,6.08861
22.05600,-95.52068,6.60011
22.06800,-95.16014,6.90378
22.09000,-94.50224,7.47220
22.11200,-93.86986,8.02376
22.12400,-93.53680,8.32074
22.14600,-92.94730,8.87121
22.15800,-92.63667,9.17367
22.18000,-92.07697,9.73491
22.20200,-91.52872,10.25275
22.21400,-91.25378,10.50194
22.23600,-90.80235,10.93275
22.24800,-90.58550,11.16819
22.27000,-90.22185,11.59846
22.28200,-90.04494,11.81147
22.30400,-89.80145,12.13956
22.31600,-89.72144,12.29659
22.33800,-89.63266,12.59151
22.35000,-89.59373,12.74812
22.37200,-89.55885,12.97515
22.39400,-89.60196,13.11102
22.40600,-89.65686,13.13112
22.42800,-89.79826,13.12510
22.44000,-89.88747,13.10248
22.46200,-90.09302,12.98388
22.48400,-90.37194,12.78317
22.49600,-90.55723,12.64463
22.51800,-90.93771,12.36483
22.53000,-91.16153,12.19981
22.55200,-91.62852,11.84933
22.56400,-91.91578,11.63622
22.58600,-92.45755,11.21024
22.59800,-92.76180,10.97168
22.62000,-93.32178,10.51620
22.64200,-93.90324,10.03210
22.65400,-94.22558,9.75534
22.67600,-94.80772,9.22121
22.68800,-95.11652,8.93879
22.71000,-95.66660,8.41701
22.72200,-95.96478,8.13459
22.74400,-96.49771,7.62135
22.75600,-96.77692,7.35377
22.77800,-97.26758,6.89233
22.80000,-97.73699,6.47298
22.81200,-97.98145,6.26363
22.83400,-98.39497,5.90140
22.84600,-98.59466,5.72032
22.86800,-98.91494,5.41813
22.88000,-99.06342,5.26111
22.90200,-99.27866,4.99973
22.92400,-99.42548,4.78140
22.93600,-99.47047,4.69091
22.95800,-99.49119,4.55721
22.97000,-99.47430,4.50463
22.99200,-99.38304,4.45612
23.00400,-99.29453,4.45884
23.02600,-99.07304,4.50433
23.03828,-98.91851,4.54504
23.06000,-98.60172,4.65769
23.08200,-98.22039,4.83646
23.09400,-97.97753,4.96316
23.12100,-97.37274,5.26312
23.13300,-97.08788,5.40125
23.14500,-96.78993,5.56252
23.16700,-96.20476,5.91889
23.18900,-95.59611,6.31080
23.20100,-95.26382,6.52089
23.22300,-94.68018,6.91033
23.23500,-94.36981,7.14422
23.25700,-93.80265,7.63371
23.26900,-93.49445,7.90747
23.29100,-92.97085,8.40447
23.30300,-92.70795,8.66171
23.32500,-92.24947,9.14490
23.34700,-91.80457,9.64050
23.35900,-91.57596,9.90026
23.38100,-91.19894,10.34141
23.39300,-91.02139,10.56412
23.41500,-90.74110,10.95360
23.42700,-90.59821,11.17295
23.44900,-90.38035,11.54373
23.47100,-90.21609,11.84605
23.48300,-90.15988,11.98139
23.50500,-90.11832,12.19458
23.51700,-90.11318,12.29362
23.53900,-90.15177,12.44585
23.55100,-90.20034,12.49271
23.57300,-90.34812,12.51961
23.59500,-90.55715,12.50052
23.60700,-90.69312,12.47920
23.62900,-90.97664,12.39493
23.64100,-91.15084,12.31000
23.66300,-91.51111,12.09788
23.67500,-91.72944,11.95324
23.69700,-92.13777,11.66475
23.70900,-92.36807,11.50153
23.73100,-92.82483,11.15850
23.75300,-93.32142,10.76160
23.76500,-93.59888,10.53939
23.78700,-94.12229,10.13808
23.79900,-94.40481,9.92015
23.82100,-94.91698,9.49936
23.83300,-95.19722,9.25536
23.85500,-95.70592,8.79174
23.87700,-96.19568,8.33341
23.88900,-96.45440,8.09439
23.91100,-96.89493,7.65487
23.92300,-97.12222,7.42449
23.94500,-97.51989,7.00898
23.95700,-97.71900,6.79632
23.97900,-98.05135,6.45051
23.99100,-98.20602,6.28450
24.01300,-98.44556,5.98422
24.03500,-98.64081,5.68126
24.04700,-98.72848,5.53520
24.06900,-98.83120,5.31417
24.08100,-98.85816,5.22632
24.10300,-98.84103,5.09776
24.11500,-98.81372,5.03036
24.13700,-98.71112,4.94555
24.15900,-98.54839,4.92266
24.17100,-98.42326,4.92764
24.19300,-98.15741,4.94301
24.20500,-97.99230,4.97219
24.22700,-97.65034,5.07340
24.23900,-97.43031,5.16544
24.26100,-96.98398,5.36390
24.28300,-96.52618,5.56325
24.29500,-96.26565,5.68873
24.31700,-95.77045,5.98006
24.32900,-95.47967,6.16625
24.35100,-94.93542,6.51729
24.36300,-94.64823,6.70366
24.38500,-94.12883,7.06090
24.39700,-93.85287,7.27810
24.41900,-93.33697,7.71261
24.44100,-92.84434,8.15373
24.45300,-92.60720,8.38288
24.47500,-92.20572,8.80832
24.48700,-92.00005,9.04543
24.50900,-91.64356,9.46591
24.52100,-91.47548,9.68331
24.54300,-91.21085,10.06156
24.56500,-90.98155,10.42508
24.57700,-90.87313,10.61298
24.59900,-90.70973,10.93268
24.61100,-90.64661,11.09182
24.63300,-90.59651,11.34608
24.64500,-90.58933,11.47214
24.66700,-90.60835,11.67483
24.68900,-90.67316,11.82483
24.70100,-90.73470,11.88003
24.72300,-90.89930,11.95583
24.73500,-91.00719,11.97490
24.75700,-91.24483,11.97274
24.76900,-91.38779,11.94298
24.79100,-91.69592,11.82850
24.80300,-91.88924,11.72888
24.82500,-92.25566,11.52307
24.84700,-92.65477,11.29981
24.85900,-92.87714,11.15950
24.88100,-93.30653,10.87155
24.89300,-93.55276,10.69737
24.91500,-94.01746,10.37321
24.92700,-94.26704,10.19620
24.94900,-94.72282,9.84500
24.97100,-95.17760,9.46697
24.98300,-95.42023,9.25262
25.00500,-95.85609,8.84215
25.01700,-96.08453,8.63076
25.03900,-96.48011,8.25946
25.05100,-96.67646,8.05616
25.07300,-97.03293,7.67237
25.09500,-97.35453,7.31082
25.10700,-97.51453,7.12191
25.12400,-97.71570,6.86245
25.14600,-97.93688,6.54875
25.15800,-98.03872,6.38569
25.18000,-98.20880,6.12536
25.19200,-98.27365,6.01022
25.21400,-98.33766,5.81718
25.23600,-98.35873,5.64406
25.24800,-98.34746,5.56332
25.27000,-98.28410,5.43948
25.28200,-98.21950,5.39606
25.30400,-98.03880,5.34957
25.31600,-97.91866,5.33431
25.33800,-97.65142,5.34501
25.35000,-97.47691,5.37247
25.37200,-97.11559,5.44146
25.39400,-96.72617,5.53128
25.40600,-96.50139,5.59936
25.42800,-96.07411,5.76333
25.44000,-95.82711,5.87196
25.46200,-95.37112,6.11060
25.47400,-95.12220,6.25076
25.49600,-94.66481,6.53020
25.51800,-94.21721,6.84928
25.53000,-93.96812,7.02960
25.55200,-93.53284,7.37528
25.56400,-93.30083,7.57611
25.58600,-92.88719,7.93900
25.59800,-92.67486,8.13855
25.62000,-92.30354,8.52067
25.64200,-91.96236,8.89405
25.65400,-91.79526,9.09213
25.67600,-91.52090,9.45519
25.68800,-91.39206,9.64779
25.71000,-91.19532,9.97636
25.72200,-91.11364,10.14378
25.74400,-91.00939,10.43919
25.75600,-90.98000,10.58935
25.77800,-90.95367,10.83717
25.80000,-90.95921,11.03507
25.81200,-90.98421,11.12571
25.83400,-91.08620,11.26048
25.84600,-91.16279,11.32181
25.86800,-91.34409,11.41520
25.88000,-91.45901,11.44969
25.90200,-91.70713,11.45284
25.92400,-91.98772,11.41027
25.93600,-92.15751,11.37192
25.95800,-92.49271,11.27223
25.97000,-92.68062,11.19969
25.99200,-93.05119,11.01789
26.00400,-93.26247,10.90065
26.02600,-93.66257,10.66935
26.03800,-93.88341,10.53746
26.06000,-94.28697,10.26058
26.08200,-94.71167,9.96185
26.09400,-94.94734,9.79215
26.11600,-95.37733,9.48551
26.12800,-95.59465,9.32934
26.15000,-95.96880,9.02214
26.16200,-96.17350,8.83699
26.18400,-96.53450,8.48611
26.20600,-96.84964,8.17389
26.21800,-96.99813,8.00066
26.24000,-97.24330,7.66977
26.25200,-97.36607,7.48905
26.27400,-97.57877,7.17608
26.28600,-97.66415,7.03185
26.30800,-97.78214,6.79901
26.33000,-97.87830,6.55101
26.34200,-97.91688,6.41818
26.36400,-97.95973,6.21843
26.37600,-97.95319,6.14112
26.39800,-97.88786,6.01440
26.41000,-97.83002,5.94063
26.43200,-97.69320,5.82518
26.44400,-97.59750,5.78157
26.46600,-97.35519,5.76161
26.48800,-97.07200,5.76987
26.50000,-96.90842,5.76849
26.52200,-96.57781,5.78642
26.53400,-96.37854,5.81878
26.55600,-95.98705,5.94218
26.56800,-95.76424,6.02559
26.59000,-95.34309,6.18260
26.61200,-94.93128,6.35450
26.62400,-94.70091,6.46863
26.64600,-94.26890,6.72407
26.65800,-94.03394,6.86793
26.68000,-93.61367,7.12443
26.69200,-93.40079,7.26670
26.71400,-93.02752,7.54984
26.72629,-92.82439,7.72620
26.74800,-92.48495,8.05144
26.77000,-92.17681,8.36187
26.78200,-92.03345,8.52797
26.80400,-91.79748,8.86127
26.81600,-91.67628,9.04647
26.83800,-91.49157,9.36267
26.85000,-91.41598,9.51791
26.87200,-91.31982,9.78727
26.89400,-91.24644,10.05797
26.90600,-91.22441,10.19805
26.92800,-91.21241,10.40094
26.94000,-91.23753,10.50266
26.96200,-91.32516,10.66504
26.97400,-91.39366,10.73700
26.99600,-91.54716,10.84509
27.01800,-91.75124,10.94304
27.03000,-91.87878,10.96698
27.05200,-92.14623,10.97153
27.06400,-92.30363,10.96898
27.08600,-92.61502,10.94991
27.09800,-92.79700,10.91248
27.12500,-93.22042,10.78940
27.13700,-93.41801,10.72225
27.15900,-93.79290,10.55809
27.17100,-93.99914,10.46073
27.19300,-94.38103,10.26528
27.20500,-94.59138,10.14916
27.22700,-94.97292,9.92442
27.23900,-95.17856,9.79684
27.26100,-95.54819,9.55765
27.28300,-95.90175,9.29312
27.29500,-96.08734,9.13670
27.31700,-96.41790,8.83946
27.32900,-96.58035,8.68649
27.35100,-96.85673,8.42881
27.36300,-96.98802,8.28915
27.38500,-97.19911,8.02654
27.39700,-97.30956,7.88113
27.41900,-97.45615,7.62015
27.44100,-97.56880,7.35895
27.45300,-97.61707,7.22844
27.47500,-97.66982,7.01999
27.48700,-97.67710,6.90727
27.50900,-97.64037,6.72879
27.52100,-97.60748,6.64641
27.54300,-97.51251,6.50983
27.56500,-97.36266,6.40133
27.57700,-97.26258,6.34027
27.59900,-97.05622,6.23920
27.61100,-96.92132,6.20992
27.63300,-96.64882,6.19108
27.64500,-96.48344,6.19252
27.66700,-96.15618,6.21567
27.67900,-95.96902,6.23744
27.70100,-95.60048,6.30550
27.72300,-95.21833,6.40373
27.73500,-95.00810,6.47405
27.75700,-94.62311,6.61935
27.76900,-94.41022,6.69434
27.79100,-94.02626,6.86919
27.80300,-93.81525,6.99405
27.82500,-93.42633,7.21926
27.84700,-93.06065,7.44453
27.85900,-92.87083,7.57233
27.88100,-92.56293,7.81803
27.89300,-92.41297,7.96403
27.91500,-92.16446,8.26281
27.92700,-92.05849,8.42660
27.94900,-91.91425,8.75943
27.97100,-91.76726,9.11127
27.98300,-91.68819,9.26681
28.00500,-91.56676,9.47586
28.01700,-91.51936,9.56940
28.03900,-91.45890,9.73318
28.05100,-91.41968,9.82163
28.07300,-91.38255,9.93858
28.08500,-91.41360,9.98768
28.10700,-91.52990,10.10298
28.12900,-91.67564,10.24438
28.14100,-91.78364,10.32328
28.16300,-92.08401,10.47720
28.17500,-92.26231,10.55829
28.19700,-92.55343,10.66960
28.20900,-92.69818,10.69219
28.23100,-92.98452,10.64406
28.25300,-93.27969,10.53038
28.26500,-93.41758,10.44214
28.28700,-93.65860,10.22830
28.29900,-93.81548,10.10788
28.32100,-94.15013,9.91669
28.33300,-94.34889,9.84001
28.35500,-94.71736,9.72545
28.37700,-95.10899,9.58835
28.38900,-95.33199,9.49789
28.41100,-95.74368,9.32597
28.42300,-95.94879,9.23683
28.44500,-96.27013,9.09035
28.45700,-96.42941,8.99282
28.47900,-96.67783,8.75709
28.49100,-96.78247,8.60612
28.51300,-96.92873,8.30339
28.53500,-97.04962,8.03000
28.54700,-97.10207,7.89908
28.56900,-97.17793,7.67442
28.58100,-97.22165,7.55741
28.60300,-97.29613,7.38041
28.61500,-97.32921,7.30848
28.63700,-97.36928,7.19669
28.65900,-97.36478,7.08956
28.67100,-97.34468,7.03634
28.69300,-97.26096,6.93675
28.70500,-97.18558,6.89097
28.72700,-96.98398,6.81872
28.73900,-96.84825,6.76510
28.76100,-96.57278,6.65869
28.77328,-96.39131,6.62006
28.79500,-96.05068,6.58107
28.81700,-95.70823,6.57418
28.82900,-95.52483,6.59296
28.85100,-95.20362,6.66362
28.86300,-95.02986,6.72549
28.88500,-94.70104,6.88320
28.89700,-94.51946,6.97499
28.91900,-94.19035,7.12773
28.94100,-93.86748,7.26146
28.95300,-93.68614,7.33325
28.97500,-93.35094,7.46864
28.98700,-93.17518,7.55571
29.00900,-92.86228,7.73852
29.02100,-92.70470,7.84789
29.04300,-92.44187,8.05599
29.06500,-92.20496,8.26033
29.07700,-92.11123,8.36802
29.09900,-91.96819,8.59724
29.11100,-91.89820,8.72681
29.12800,-91.81441,8.89696
29.15000,-91.73874,9.09737
29.16200,-91.71761,9.20955
29.18400,-91.69292,9.40466
29.20600,-91.69027,9.57566
29.21800,-91.71040,9.65262
29.24000,-91.79749,9.74272
29.25200,-91.86556,9.79095
29.27400,-92.00747,9.88656
29.28600,-92.10457,9.93772
29.30800,-92.31741,10.01675
29.32029,-92.45161,10.04485
29.34200,-92.72327,10.08129
29.36400,-93.00766,10.10182
29.37600,-93.16841,10.09638
29.39800,-93.47856,10.06069
29.41000,-93.65655,10.01980
29.43200,-93.96612,9.93965
29.44400,-94.13206,9.89232
29.46600,-94.44627,9.78732
29.48800,-94.76572,9.67758
29.50000,-94.94398,9.61502
29.52200,-95.27235,9.48207
29.53400,-95.44168,9.40852
29.55600,-95.74839,9.25094
29.56800,-95.90771,9.15907
29.59000,-96.18420,9.00259
29.61200,-96.42647,8.85196
29.62400,-96.53897,8.76305
29.64600,-96.73216,8.57143
29.65800,-96.82893,8.47912
29.68000,-96.91153,8.33901
29.69200,-96.92707,8.23005
29.71400,-97.00998,7.92708
29.72600,-97.05448,7.80178
29.74800,-97.06710,7.67449
29.77000,-97.05174,7.58795
29.78200,-97.04364,7.55006
29.80400,-97.07063,7.48972
29.81600,-97.04005,7.48168
29.83800,-96.90370,7.46510
29.85000,-96.81153,7.42487
29.87200,-96.62200,7.29247
29.89400,-96.38080,7.15269
29.90600,-96.20398,7.10394
29.92800,-95.88225,7.05141
29.94000,-95.70909,7.02620
29.96200,-95.39844,7.01451
29.97400,-95.21790,7.01526
29.99600,-94.92462,7.03427
30.01800,-94.64259,7.09147
30.03000,-94.50420,7.14623
30.05200,-94.23644,7.27974
30.06400,-94.07796,7.36608
30.08600,-93.78391,7.51663
30.09800,-93.62148,7.58371
30.12000,-93.30453,7.70255
30.13200,-93.12946,7.76890
30.15400,-92.82160,7.88709
30.17600,-92.52734,8.00125
30.18800,-92.38055,8.05850
30.21000,-92.17020,8.19748
30.22200,-92.07886,8.29589
30.24400,-91.94302,8.48826
30.25600,-91.89577,8.58569
30.27800,-91.86410,8.74919
30.30000,-91.87969,8.92710
30.31200,-91.89268,9.02749
30.33400,-91.91822,9.18846
30.34600,-91.93805,9.24479
30.36800,-92.00668,9.30832
30.38000,-92.05072,9.34862
30.40200,-92.13915,9.43955
30.42400,-92.26129,9.53039
30.43600,-92.35406,9.56133
30.45800,-92.56972,9.59780
30.47000,-92.70026,9.61522
30.49200,-92.95946,9.66202
30.50400,-93.11930,9.69067
30.52600,-93.42794,9.72148
30.53800,-93.59896,9.72289
30.56000,-93.91544,9.68945
30.58200,-94.21722,9.61472
30.59400,-94.37452,9.55794
30.61600,-94.66309,9.42971
30.62800,-94.81818,9.35960
30.65000,-95.10359,9.24494
30.66200,-95.27563,9.19023
30.68400,-95.52111,9.04436
30.70600,-95.79475,8.91015
30.71800,-95.97251,8.87289
30.74000,-96.23856,8.82398
30.75200,-96.35202,8.78919
30.77400,-96.54964,8.71801
30.78600,-96.64651,8.62411
30.80800,-96.80107,8.46906
30.82000,-96.83449,8.40441
30.84200,-96.88907,8.26853
30.86400,-96.91612,8.11260
30.87600,-96.93569,8.04154
30.89800,-96.94164,7.94536
30.91000,-96.93547,7.91706
30.93200,-96.89732,7.88752
30.94400,-96.87684,7.86142
30.96600,-96.78800,7.80736
30.98800,-96.64239,7.75077
31.00000,-96.54370,7.70667
31.02200,-96.32317,7.63649
31.03400,-96.18501,7.60338
31.05600,-95.91196,7.54775
31.06800,-95.74579,7.52068
31.09000,-95.44395,7.46771
31.11200,-95.14350,7.44020
31.12900,-94.90765,7.45347
31.14100,-94.73782,7.47004
31.16300,-94.44046,7.50421
31.17500,-94.28691,7.52401
31.19700,-94.01488,7.56850
31.20900,-93.86305,7.60965
31.23100,-93.59283,7.69147
31.25300,-93.32271,7.77600
31.26500,-93.17450,7.81379
31.28700,-92.90291,7.86672
31.29900,-92.76381,7.89502
31.32100,-92.53362,7.96550
31.33300,-92.42126,8.00739
31.35500,-92.23863,8.09372
31.36700,-92.15057,8.13949
31.38900,-92.04119,8.21870
31.41100,-91.96918,8.31478
31.42300,-91.95276,8.38643
31.44500,-91.94353,8.51608
31.45700,-91.95956,8.58105
31.47900,-91.99337,8.67232
31.49100,-92.03078,8.69953
31.51300,-92.11437,8.75166
31.53500,-92.22333,8.81462
31.54700,-92.28879,8.84637
31.56900,-92.43372,8.87887
31.58100,-92.53205,8.88231
31.60300,-92.76297,8.90020
31.61500,-92.89751,8.92997
31.63700,-93.14779,8.99951
31.65900,-93.41773,9.02723
31.67100,-93.58561,9.02944
31.69300,-93.89553,9.03458
31.70500,-94.05835,9.04609
31.72700,-94.34018,9.06321
31.73900,-94.49333,9.05159
31.76100,-94.78652,8.98787
31.77300,-94.94292,8.95195
31.79500,-95.20960,8.90361
31.81700,-95.47031,8.85862
31.82900,-95.60586,8.82488
31.85100,-95.85695,8.74147
31.86300,-95.99355,8.70082
31.88500,-96.21989,8.66476
31.89700,-96.32732,8.65971
31.91900,-96.50126,8.63377
31.94100,-96.65054,8.57667
31.95300,-96.71853,8.52694
31.97500,-96.80765,8.44377
31.98700,-96.83227,8.41206
32.00900,-96.83434,8.35067
32.02100,-96.82398,8.30588
32.04300,-96.79893,8.21419
32.06500,-96.74731,8.15886
32.07700,-96.69872,8.14490
32.09900,-96.59100,8.11884
32.11100,-96.52269,8.09429
32.13300,-96.38326,8.03879
32.14500,-96.28680,8.01523
32.16700,-96.07433,8.00210
32.17900,-95.94675,7.98949
32.20100,-95.70018,7.95612
32.22300,-95.43915,7.91444
32.23500,-95.28911,7.90600
32.25700,-95.00918,7.89625
32.26900,-94.85188,7.89979
32.29100,-94.56674,7.90582
32.30300,-94.40759,7.90129
32.32500,-94.11990,7.90426
32.34700,-93.84292,7.92787
32.35900,-93.69625,7.95083
32.38100,-93.43393,7.99023
32.39300,-93.29828,8.00296
32.41500,-93.05442,8.01957
32.42700,-92.93868,8.03061
32.44900,-92.73891,8.06725
32.46129,-92.63655,8.09434
32.48300,-92.47620,8.13839
32.50500,-92.34201,8.17160
32.51700,-92.28542,8.19484
32.53900,-92.18970,8.24354
32.55100,-92.15614,8.26965
32.57300,-92.13071,8.30821
32.58500,-92.12858,8.33375
32.60700,-92.14544,8.37759
32.62900,-92.18980,8.42611
32.64100,-92.22626,8.44784
32.66300,-92.34285,8.48677
32.67500,-92.40976,8.50826
32.69700,-92.55538,8.54090
32.70900,-92.65262,8.54971
32.73100,-92.86147,8.57323
32.75300,-93.07103,8.59949
32.76500,-93.19494,8.61397
32.78700,-93.44523,8.63745
32.79900,-93.59129,8.64255
32.82100,-93.86913,8.64925
32.83300,-94.01141,8.65796
32.85500,-94.29423,8.66412
32.87700,-94.57182,8.66454
32.88900,-94.71916,8.65662
32.91100,-94.97360,8.62416
32.92300,-95.11196,8.61024
32.94500,-95.35744,8.59319
32.95700,-95.48714,8.58916
32.97900,-95.71058,8.58027
32.99100,-95.83057,8.57647
33.01300,-96.03839,8.56799
33.03500,-96.22575,8.55081
33.04700,-96.32080,8.54690
33.06900,-96.46828,8.54783
33.08100,-96.54064,8.55386
33.10300,-96.60919,8.54283
33.11500,-96.63599,8.51433
33.13200,-96.64617,8.47032
33.15400,-96.64674,8.42556
33.17600,-96.60752,8.39627
33.18800,-96.57034,8.39015
33.21000,-96.50992,8.36117
33.22200,-96.46420,8.34894
33.24400,-96.35048,8.34184
33.25600,-96.27873,8.34878
33.27800,-96.13256,8.36673
33.30000,-95.96185,8.37806
33.31200,-95.85141,8.37707
33.33400,-95.62151,8.34846
33.34600,-95.49142,8.33275
33.36800,-95.22684,8.30978
33.38000,-95.07149,8.28913
33.40200,-94.80074,8.24555
33.41400,-94.65772,8.23214
33.43600,-94.40221,8.23687
33.45800,-94.13699,8.26214
33.47000,-93.99827,8.27342
33.49200,-93.77752,8.27852
33.50400,-93.66756,8.28111
33.52600,-93.47047,8.31133
33.53800,-93.35430,8.32666
33.56000,-93.14629,8.30313
33.58200,-92.94881,8.27134
33.59400,-92.84756,8.26732
33.61600,-92.67245,8.24926
33.62800,-92.58449,8.23987
33.65000,-92.46727,8.22782
33.66200,-92.42967,8.22224
33.68400,-92.37981,8.24635
33.70600,-92.35395,8.28005
33.71800,-92.36285,8.29497
33.74000,-92.39687,8.31222
33.75200,-92.42902,8.30749
33.77400,-92.48962,8.30638
33.78600,-92.53494,8.30746
33.80800,-92.63315,8.29837
33.82000,-92.69548,8.28490
33.84200,-92.83086,8.26209
33.86400,-93.01074,8.24165
33.87600,-93.11013,8.24554
33.89800,-93.31029,8.25883
33.91000,-93.43578,8.26785
33.93200,-93.68440,8.27648
33.94400,-93.82371,8.28660
33.96600,-94.06815,8.30450
33.98800,-94.31997,8.31988
34.00000,-94.45869,8.32485
34.02200,-94.70198,8.33414
34.03400,-94.82571,8.33161
34.05600,-95.04754,8.32474
34.06800,-95.16567,8.32122
34.09000,-95.38136,8.32036
34.11200,-95.59752,8.33672
34.12400,-95.70897,8.36022
34.14600,-95.88920,8.40509
34.15800,-95.98278,8.41434
34.18000,-96.13269,8.41834
34.19200,-96.21000,8.43481
34.21400,-96.31866,8.47990
34.22600,-96.36401,8.50707
34.24800,-96.40969,8.52244
34.27000,-96.44483,8.51763
34.28200,-96.44774,8.52369
34.30400,-96.42864,8.54586
34.31600,-96.40283,8.56084
34.33800,-96.33959,8.56870
34.35000,-96.30431,8.57395
34.37200,-96.20654,8.61826
34.39400,-96.08003,8.65769
34.40600,-95.99723,8.66739
34.42800,-95.83320,8.65442
34.44000,-95.74245,8.65072
34.46200,-95.53447,8.66217
34.47400,-95.41018,8.66889
34.49600,-95.17761,8.65626
34.50829,-95.05034,8.63536
34.53000,-94.82291,8.59700
34.55200,-94.58585,8.59637
34.56400,-94.45610,8.60689
34.58600,-94.22917,8.61823
34.59800,-94.10879,8.61370
34.62000,-93.88143,8.58881
34.63200,-93.76264,8.57836
34.65400,-93.55048,8.58091
34.67600,-93.34706,8.56751
34.68800,-93.25422,8.55162
34.71000,-93.09347,8.52468
34.72200,-93.01366,8.53341
34.74400,-92.82883,8.48207
34.75600,-92.76819,8.43817
34.77800,-92.65021,8.38915
34.80000,-92.55889,8.31481
34.81200,-92.51263,8.26913
34.83400,-92.46677,8.19817
34.84600,-92.45934,8.15328
34.86800,-92.45344,8.09561
34.88000,-92.47544,8.06920
34.90200,-92.54542,8.03307
34.91400,-92.59641,8.02689
34.93600,-92.70817,8.01643
34.95800,-92.83527,8.00492
34.97000,-92.90996,7.99947
34.99200,-93.05677,7.97589
35.00400,-93.13563,7.96176
35.02600,-93.29694,7.94083
35.03800,-93.39553,7.92190
35.06000,-93.59116,7.90024
35.08200,-93.79683,7.89496
35.09400,-93.92344,7.89892
35.11600,-94.16879,7.92520
35.13300,-94.35683,7.95131
35.14500,-94.48860,7.96610
35.16700,-94.72793,7.99738
35.17900,-94.85703,8.02260
35.20100,-95.07101,8.06643
35.22300,-95.26973,8.11090
35.23500,-95.37290,8.13835
35.25700,-95.53867,8.17742
35.26900,-95.62231,8.20202
35.29100,-95.76596,8.25478
35.30300,-95.83707,8.28597
35.32500,-95.94321,8.35177
35.34700,-96.03111,8.40011
35.35900,-96.08117,8.42299
35.38100,-96.15923,8.48235
35.39300,-96.19102,8.52363
35.41500,-96.21314,8.61378
35.42700,-96.21365,8.65725
35.44900,-96.19809,8.71888
35.46100,-96.17335,8.74507
35.48300,-96.08591,8.77847
35.50500,-95.99242,8.80313
35.51700,-95.94070,8.82157
35.53900,-95.80989,8.86408
35.55100,-95.72894,8.88884
35.57300,-95.59166,8.93141
35.58500,-95.50832,8.95745
35.60700,-95.33624,9.00380
35.62900,-95.14999,9.05532
35.64100,-95.04309,9.06791
35.66300,-94.85152,9.05922
35.67500,-94.74714,9.04800
35.69700,-94.53262,9.03053
35.70900,-94.41735,9.02288
35.73100,-94.21390,8.99822
35.75300,-94.01374,8.96738
35.76500,-93.90251,8.94834
35.78700,-93.71542,8.90042
35.79900,-93.61967,8.87341
35.82100,-93.46788,8.81717
35.83300,-93.38664,8.78591
35.85500,-93.24664,8.74171
35.86700,-93.17592,8.72112
35.88900,-93.04601,8.65514
35.91100,-92.93150,8.56125
35.92300,-92.88298,8.50061
35.94500,-92.82456,8.40576
35.95700,-92.79604,8.36918
35.97900,-92.76653,8.30505
35.99100,-92.76632,8.25381
36.01300,-92.80621,8.15316
36.03500,-92.86129,8.08114
36.04700,-92.90013,8.05187
36.06900,-92.97595,8.00565
36.08100,-93.03085,7.96389
36.10300,-93.15720,7.86756
36.11500,-93.22176,7.83063
36.13700,-93.35023,7.78833
36.15900,-93.49541,7.75545
36.17100,-93.58287,7.73655
36.19300,-93.74675,7.69298
36.20500,-93.84148,7.66826
36.22700,-94.02148,7.65023
36.23900,-94.11929,7.65122
36.26100,-94.30582,7.66507
36.27300,-94.40590,7.67166
36.29500,-94.60096,7.68110
36.31700,-94.78894,7.69393
36.32900,-94.89275,7.71214
36.35100,-95.07274,7.75307
36.36300,-95.16285,7.78028
36.38500,-95.31057,7.82143
36.39700,-95.38889,7.84633
36.41900,-95.51424,7.92117
36.44100,-95.63135,8.02558
36.45300,-95.68652,8.08185
36.47500,-95.77061,8.16168
36.48700,-95.81103,8.19602
36.50900,-95.87189,8.27046
36.52100,-95.89249,8.32770
36.54300,-95.90425,8.44559
36.55500,-95.90220,8.50383
36.57700,-95.87714,8.58329
36.59900,-95.83688,8.64771
36.61100,-95.80782,8.69019
36.63300,-95.73640,8.79150
36.64500,-95.68622,8.83666
36.66700,-95.59044,8.89322
36.67900,-95.53349,8.92495
36.70100,-95.41098,8.99451
36.72300,-95.26614,9.07411
36.73500,-95.18275,9.10646
36.75700,-95.02942,9.15000
36.76900,-94.94267,9.16414
36.79100,-94.77393,9.18640
36.80300,-94.67826,9.20387
36.82500,-94.49702,9.22638
36.84700,-94.31792,9.22577
36.85900,-94.22220,9.21414
36.88100,-94.04510,9.18760
36.89300,-93.95332,9.17092
36.91500,-93.79812,9.12599
36.92700,-93.71893,9.09944
36.94900,-93.58311,9.04849
36.96100,-93.51383,9.01662
36.98300,-93.39803,8.94223
37.00500,-93.28764,8.84906
37.01700,-93.23906,8.79449
37.03900,-93.16283,8.69627
37.05100,-93.12771,8.65503
37.07300,-93.06728,8.57130
37.08500,-93.04527,8.51187
37.10700,-93.03220,8.39279
37.13400,-93.03886,8.25856
37.14600,-93.05006,8.21064
37.15800,-93.06563,8.16442
37.18000,-93.12334,8.05030
37.19200,-93.16869,7.99111
37.21400,-93.24774,7.89942
37.22600,-93.29848,7.85151
37.24800,-93.40361,7.76726
37.27000,-93.52814,7.67166
37.28200,-93.60216,7.62491
37.30400,-93.73513,7.56701
37.31600,-93.80991,7.53049
37.33800,-93.95712,7.48504
37.35000,-94.04628,7.46591
37.37200,-94.20441,7.45916
37.39400,-94.35680,7.47301
37.40600,-94.44251,7.47926
37.42800,-94.59539,7.48093
37.44000,-94.67775,7.48749
37.46200,-94.81144,7.50664
37.47400,-94.88377,7.53100
37.49600,-95.00527,7.58757
37.50800,-95.07259,7.60994
37.53000,-95.18407,7.65875
37.55200,-95.29090,7.72133
37.56400,-95.34648,7.76372
37.58600,-95.43610,7.86784
37.59800,-95.47117,7.92202
37.62000,-95.53386,8.01777
37.63200,-95.56282,8.07868
37.65400,-95.59759,8.19361
37.67600,-95.60748,8.31778
37.68800,-95.60674,8.38486
37.71000,-95.59637,8.49552
37.72200,-95.57515,8.55106
37.74400,-95.52223,8.66219
37.75600,-95.48714,8.72331
37.77800,-95.40751,8.83217
37.80000,-95.32196,8.91974
37.81200,-95.27083,8.96586
37.83400,-95.15962,9.04508
37.84600,-95.09555,9.08223
37.86800,-94.97475,9.14893
37.88000,-94.91657,9.18243
37.90200,-94.80716,9.26062
37.91400,-94.73879,9.31002
37.93600,-94.60808,9.36938
37.95800,-94.47812,9.39224
37.97000,-94.40965,9.39538
37.99200,-94.28070,9.40677
38.00400,-94.20133,9.41109
38.02600,-94.05913,9.39935
38.03800,-93.97900,9.38138
38.06000,-93.84400,9.31955
38.08200,-93.72333,9.24617
38.09400,-93.65903,9.21058
38.11600,-93.57383,9.14552
38.12800,-93.53387,9.10477
38.15000,-93.46468,9.01710
38.16200,-93.44288,8.95206
38.18400,-93.44128,8.85118
38.19628,-93.42735,8.81680
38.21800,-93.39977,8.73883
38.24000,-93.38633,8.60205
38.25200,-93.39000,8.51480
38.27400,-93.39909,8.37618
38.28600,-93.40113,8.31303
38.30800,-93.41845,8.20926
38.32000,-93.44391,8.13705
38.34200,-93.51217,7.98787
38.36400,-93.59397,7.86760
38.37600,-93.64161,7.83078
38.39800,-93.75121,7.77849
38.41000,-93.81775,7.74286
38.43200,-93.94156,7.65717
38.44400,-94.01577,7.60978
38.46600,-94.14561,7.55146
38.48800,-94.26351,7.49450
38.50000,-94.32085,7.45754
38.52200,-94.42404,7.38342
38.53400,-94.48501,7.34889
38.55600,-94.57657,7.33033
38.56800,-94.62560,7.33239
38.59000,-94.73232,7.34562
38.60200,-94.79513,7.35921
38.62400,-94.90041,7.40656
38.64600,-94.99736,7.47080
38.65800,-95.04838,7.51910
38.68000,-95.12261,7.61939
38.69200,-95.15524,7.65645
38.71400,-95.20393,7.70946
38.72600,-95.22123,7.74863
38.74800,-95.23544,7.84290
38.77000,-95.24321,7.95634
38.78200,-95.24568,8.01130
38.80400,-95.24716,8.07972
38.81600,-95.25358,8.14172
38.83800,-95.24902,8.30446
38.85000,-95.24056,8.40387
38.87200,-95.20496,8.54926
38.89400,-95.17457,8.66608
38.90600,-95.15513,8.73248
38.92800,-95.08105,8.88074
38.94000,-95.03361,8.95983
38.96200,-94.93238,9.05742
38.97400,-94.88303,9.09257
38.99600,-94.78439,9.15924
39.00800,-94.72282,9.21230
39.03000,-94.61494,9.32228
39.05200,-94.52442,9.41299
39.06400,-94.47253,9.43789
39.08600,-94.38680,9.48454
39.09800,-94.33934,9.51088
39.12000,-94.25088,9.55217
39.13700,-94.18768,9.57120
39.14900,-94.14108,9.57000
39.17100,-94.05393,9.54026
39.19300,-93.96378,9.49924
39.20500,-93.91542,9.47922
39.22700,-93.83498,9.43238
39.23900,-93.79247,9.40084
39.26100,-93.71767,9.32609
39.27300,-93.68993,9.27487
39.29500,-93.65464,9.17811
39.31700,-93.63348,9.08116
39.32900,-93.62367,9.02833
39.35100,-93.61962,8.92063
39.36300,-93.62443,8.85255
39.38500,-93.64307,8.72420
39.39700,-93.65652,8.65656
39.41900,-93.69008,8.52520
39.44100,-93.73516,8.38398
39.45300,-93.76662,8.30514
39.47500,-93.82446,8.15179
39.48700,-93.85894,8.07778
39.50900,-93.92308,7.96277
39.52100,-93.95650,7.90039
39.54300,-94.02086,7.79219
39.55500,-94.05882,7.72809
39.57700,-94.14169,7.61416
39.59900,-94.22669,7.52833
39.61100,-94.27728,7.48705
39.63300,-94.37495,7.43532
39.64500,-94.42434,7.41320
39.66700,-94.51138,7.36945
39.67900,-94.56322,7.34943
39.70100,-94.64555,7.33599
39.72300,-94.71913,7.32720
39.73500,-94.76275,7.31759
39.75700,-94.83657,7.32385
39.76900,-94.87925,7.34273
39.79100,-94.93207,7.39820
39.80300,-94.95571,7.43422
39.82500,-95.00028,7.50321
39.84700,-95.03985,7.59454
39.85900,-95.04806,7.65156
39.88100,-95.06075,7.75144
39.89300,-95.06641,7.80131
39.91500,-95.08085,7.89725
39.92700,-95.07450,7.97590
39.94900,-95.04938,8.13407
39.96100,-95.03373,8.20727
39.98300,-95.00228,8.31537
40.00500,-94.97166,8.43336
40.01700,-94.94653,8.51813
40.03900,-94.90172,8.67799
40.05100,-94.87395,8.74966
40.07300,-94.80954,8.85593
40.08500,-94.78253,8.91866
40.10700,-94.71250,9.05811
40.12900,-94.63882,9.20255
40.14100,-94.58660,9.26611
40.16300,-94.51489,9.34179
40.17500,-94.48180,9.36090
40.19700,-94.42542,9.42645
40.20900,-94.37984,9.48546
40.23100,-94.30952,9.57038
40.24329,-94.27914,9.59003
40.26600,-94.22279,9.60345
40.28800,-94.17273,9.61559
40.30000,-94.14624,9.63074
40.32200,-94.08929,9.64633
40.33400,-94.06119,9.62932
40.35600,-94.02380,9.55597
40.36800,-94.00333,9.51580
40.39000,-93.96033,9.46054
40.40200,-93.93146,9.42216
40.42400,-93.90878,9.31277
40.44600,-93.90957,9.19025
40.45800,-93.91388,9.13393
40.48000,-93.90925,9.04713
40.49200,-93.91560,8.99304
40.51400,-93.93983,8.86339
40.52600,-93.95335,8.78320
40.54800,-93.98542,8.64270
40.57000,-94.00565,8.51102
40.58200,-94.02711,8.43708
40.60400,-94.07065,8.28958
40.61600,-94.09481,8.20405
40.63800,-94.14062,8.05785
40.65000,-94.17373,7.98853
40.67200,-94.23352,7.85209
40.69400,-94.30340,7.72354
40.70600,-94.34159,7.66259
40.72800,-94.42313,7.56890
40.74000,-94.45981,7.52430
40.76200,-94.52030,7.45853
40.77400,-94.55109,7.41896
40.79600,-94.61467,7.35739
40.80800,-94.64065,7.33884
40.83000,-94.67679,7.30398
40.85200,-94.71395,7.26336
40.86400,-94.73195,7.25072
40.88600,-94.76505,7.25554
40.89800,-94.77958,7.26734
40.92000,-94.79360,7.31127
40.93200,-94.80550,7.33452
40.95400,-94.82410,7.37787
40.97600,-94.83278,7.43424
40.98800,-94.83080,7.47550
41.01000,-94.81878,7.55654
41.02200,-94.81238,7.60535
41.04400,-94.79025,7.69618
41.05600,-94.77791,7.75805
41.07800,-94.73914,7.89245
41.09000,-94.72657,7.96157
41.11200,-94.70341,8.09851
41.13900,-94.66272,8.28835
41.15100,-94.63778,8.36963
41.16300,-94.60676,8.44685
41.18500,-94.56030,8.58618
41.19700,-94.53067,8.65622
41.21900,-94.47123,8.78322
41.24100,-94.40636,8.89343
41.25300,-94.38338,8.94993
41.27500,-94.34608,9.05764
41.28700,-94.31675,9.11656
41.30900,-94.26328,9.21636
41.32100,-94.24919,9.26258
41.34300,-94.23263,9.35610
41.35500,-94.21925,9.40162
41.37700,-94.19853,9.47908
41.39900,-94.16345,9.53330
41.41100,-94.15314,9.54360
41.43300,-94.13084,9.56261
41.44500,-94.11218,9.57211
41.46700,-94.08628,9.56969
41.47900,-94.07209,9.55511
41.50100,-94.05762,9.49471
41.52300,-94.05231,9.42920
41.53500,-94.05505,9.39801
41.55700,-94.07759,9.34550
41.56900,-94.08964,9.31385
41.59100,-94.12715,9.23710
41.60300,-94.14760,9.18262
41.62500,-94.19090,9.07836
41.63729,-94.20886,9.01858
41.65900,-94.24178,8.91365
41.68100,-94.27200,8.78570
41.69300,-94.28895,8.70612
41.71500,-94.31119,8.56048
41.72700,-94.32791,8.48553
41.74900,-94.35375,8.35138
41.76100,-94.37945,8.28138
41.78300,-94.43156,8.16262
41.80500,-94.47702,8.05279
41.81700,-94.49877,7.98532
41.83900,-94.54278,7.86756
41.85100,-94.57182,7.80806
41.87300,-94.62390,7.72617
41.88500,-94.64037,7.68570
41.90700,-94.66736,7.58891
41.92900,-94.69319,7.48364
41.94100,-94.70435,7.43309
41.96300,-94.70585,7.37096
41.97500,-94.70824,7.35593
41.99700,-94.72273,7.32607
42.00900,-94.72414,7.30874
42.03100,-94.73182,7.29276
42.04300,-94.73345,7.31055
42.06500,-94.72021,7.37940
42.08700,-94.69660,7.43423
42.09900,-94.68403,7.45509
42.12100,-94.66039,7.49024
42.13300,-94.64408,7.51822
42.15500,-94.59699,7.58278
42.16700,-94.57237,7.62561
42.18900,-94.53410,7.71069
42.21100,-94.50513,7.81373
42.22300,-94.48132,7.87806
42.24500,-94.44891,8.00714
42.25700,-94.43526,8.08102
42.27900,-94.41060,8.22304
42.29100,-94.38637,8.29440
42.31300,-94.34602,8.42415
42.33500,-94.30439,8.55163
42.34700,-94.27885,8.62216
42.36900,-94.22292,8.73521
42.38100,-94.19951,8.79495
42.40300,-94.16758,8.89783
42.41500,-94.15336,8.95115
42.43700,-94.13404,9.06043
42.44900,-94.12842,9.11950
42.47100,-94.12088,9.22608
42.49300,-94.12457,9.31290
42.50500,-94.12794,9.35819
42.52700,-94.13715,9.42762
42.53900,-94.14200,9.45425
42.56100,-94.16107,9.47764
42.57300,-94.17947,9.48727
42.59500,-94.18519,9.50476
42.61700,-94.19228,9.50974
42.62900,-94.19698,9.49749
42.65100,-94.21329,9.45421
42.66300,-94.22686,9.42848
42.68500,-94.25019,9.37367
42.69700,-94.27798,9.33766
42.71900,-94.33708,9.27760
42.73129,-94.36742,9.24376
42.75400,-94.39712,9.17441
42.77600,-94.43204,9.08799
42.78800,-94.45511,9.02980
42.81000,-94.49734,8.90988
42.82200,-94.51205,8.84349
42.84400,-94.52881,8.71208
42.85600,-94.54424,8.62862
42.87800,-94.57307,8.47641
42.89000,-94.59062,8.40249
42.91200,-94.61967,8.30221
42.93400,-94.65202,8.22302
42.94600,-94.67348,8.16498
42.96800,-94.71049,8.02560
42.98000,-94.73256,7.96690
43.00200,-94.74496,7.88237
43.01400,-94.74937,7.83017
43.03600,-94.75936,7.72029
43.05800,-94.76884,7.62203
43.07000,-94.76707,7.57898
43.09200,-94.73765,7.53030
43.10400,-94.72645,7.50247
43.12600,-94.72156,7.44366
43.14300,-94.70972,7.39967
43.15500,-94.69263,7.38863
43.17700,-94.66153,7.39241
43.19900,-94.63802,7.40745
43.21100,-94.61720,7.42182
43.23300,-94.56659,7.44998
43.24500,-94.54007,7.46665
43.26700,-94.48929,7.50565
43.27900,-94.46317,7.52866
43.30100,-94.40765,7.58960
43.32300,-94.35521,7.67548
43.33500,-94.32952,7.72889
43.35700,-94.27835,7.81967
43.36900,-94.24395,7.87267
43.39100,-94.19751,7.96721
43.40300,-94.17741,8.02276
43.42500,-94.13509,8.15150
43.43700,-94.11165,8.21984
43.45900,-94.08469,8.33751
43.48100,-94.05524,8.44479
43.49300,-94.04491,8.50421
43.51500,-94.02610,8.61827
43.52700,-94.02097,8.69312
43.54900,-94.00861,8.82140
43.56100,-94.00527,8.87109
43.58300,-94.01540,8.94987
43.60500,-94.02762,9.04669
43.61700,-94.03174,9.10292
43.63900,-94.04124,9.19055
43.65100,-94.05438,9.22075
43.67300,-94.09971,9.26998
43.68500,-94.11983,9.30528
43.70700,-94.15387,9.36053
43.72900,-94.18944,9.39931
43.74100,-94.21243,9.40384
43.76300,-94.25765,9.39719
43.77500,-94.28362,9.39284
43.79700,-94.32913,9.37961
43.80900,-94.35867,9.36556
43.83100,-94.40442,9.31882
43.84300,-94.42737,9.28611
43.86500,-94.47483,9.22830
43.88700,-94.52728,9.17019
43.89900,-94.55792,9.13601
43.92100,-94.61152,9.05623
43.93300,-94.64347,8.99857
43.95500,-94.69094,8.90132
43.96700,-94.71248,8.85157
43.98900,-94.73782,8.76910
44.01100,-94.75894,8.65841
44.02300,-94.77659,8.59110
44.04500,-94.80853,8.46179
44.05700,-94.81704,8.41420
44.07900,-94.82333,8.33870
44.09100,-94.82834,8.27991
44.11300,-94.83203,8.15975
44.13500,-94.81873,8.05154
44.14700,-94.80911,7.99941
44.16900,-94.77088,7.90509
44.18100,-94.75516,7.84413
44.20300,-94.73859,7.73830
44.21500,-94.72009,7.69733
44.23700,-94.68482,7.64733
44.24900,-94.66698,7.61915
44.27100,-94.63844,7.56097
44.29300,-94.59791,7.52219
44.30500,-94.57133,7.51679
44.32700,-94.51535,7.52044
44.33900,-94.48426,7.52406
44.36100,-94.41227,7.50948
44.37300,-94.37325,7.50597
44.39500,-94.29705,7.52878
44.41700,-94.22566,7.56528
44.42900,-94.18526,7.58747
44.45100,-94.13516,7.63906
44.46300,-94.10646,7.67292
44.48500,-94.05492,7.74841
44.49700,-94.03081,7.78445
44.51900,-93.99384,7.85443
44.53128,-93.97536,7.89875
44.55300,-93.93909,7.99389
44.57500,-93.89779,8.09811
44.58700,-93.88220,8.14524
44.60900,-93.86823,8.22669
44.62100,-93.86086,8.28098
44.64300,-93.84471,8.39894
44.65500,-93.84584,8.46301
44.67700,-93.85015,8.57169
44.69900,-93.87654,8.67066
44.71100,-93.89305,8.73753
44.73300,-93.91467,8.85926
44.74500,-93.92085,8.90931
44.76700,-93.94504,8.95482
44.77900,-93.96659,8.97216
44.80100,-94.01556,9.02060
44.82300,-94.06241,9.08181
44.83500,-94.09998,9.11280
44.85700,-94.17926,9.15432
44.86900,-94.22602,9.17355
44.89100,-94.29988,9.21525
44.90300,-94.34666,9.24425
44.92500,-94.42262,9.27572
44.93700,-94.46068,9.27074
44.95900,-94.53009,9.24134
44.98100,-94.59380,9.22108
44.99300,-94.61905,9.20181
45.01500,-94.65379,9.15696
45.02700,-94.67329,9.12311
45.04900,-94.71913,9.04844
45.06100,-94.74584,9.01120
45.08300,-94.80002,8.94809
45.10500,-94.85600,8.89600
45.11700,-94.88629,8.85945
45.14400,-94.93895,8.75892
45.15600,-94.95708,8.71340
45.16800,-94.97273,8.66797
45.19000,-94.97886,8.57732
45.20200,-94.97767,8.52661
45.22400,-94.95711,8.42654
45.24600,-94.92996,8.31380
45.25800,-94.90772,8.25229
45.28000,-94.87697,8.15541
45.29200,-94.85297,8.11322
45.31400,-94.81219,8.04181
45.32600,-94.78815,8.00213
45.34800,-94.75528,7.92662
45.37000,-94.69958,7.86847
45.38200,-94.66952,7.83843
45.40400,-94.61523,7.78089
45.41600,-94.58147,7.74955
45.43800,-94.52065,7.70914
45.45000,-94.47735,7.68932
45.47200,-94.39808,7.65893
45.48400,-94.36331,7.64947
45.50600,-94.28508,7.64182
45.52800,-94.19654,7.64415
45.54000,-94.15289,7.64909
45.56200,-94.08720,7.66707
45.57400,-94.05104,7.69145
45.59600,-93.98640,7.75262
45.60800,-93.95833,7.78299
45.63000,-93.91801,7.83673
45.65200,-93.87762,7.90097
45.66400,-93.85757,7.94094
45.68600,-93.82377,8.02117
45.69800,-93.81284,8.06048
45.72000,-93.79186,8.12323
45.73200,-93.77827,8.16253
45.75400,-93.76310,8.22451
45.77600,-93.76676,8.29205
45.78800,-93.76691,8.33539
45.81000,-93.78017,8.41061
45.82200,-93.79356,8.45585
45.84400,-93.83502,8.55542
45.85600,-93.86046,8.60682
45.87800,-93.92095,8.69909
45.89000,-93.94300,8.74431
45.91200,-93.99193,8.81865
45.93400,-94.03859,8.87902
45.94600,-94.06441,8.90238
45.96800,-94.12074,8.93551
45.98000,-94.15831,8.95095
46.00200,-94.23518,8.97409
46.01400,-94.28305,8.99415
46.03600,-94.37544,9.03868
46.05800,-94.46823,9.07322
46.07000,-94.51835,9.08475
46.09200,-94.60836,9.09786
46.10400,-94.65371,9.09429
46.12600,-94.73534,9.08627
46.13800,-94.77283,9.07907
46.16000,-94.82774,9.05291
46.18200,-94.87653,9.00893
46.19400,-94.90260,8.98124
46.21600,-94.93261,8.93065
46.22800,-94.95185,8.89410
46.25000,-94.98820,8.83810
46.26200,-95.00408,8.80372
46.28400,-95.03013,8.73589
46.29600,-95.04061,8.70249
46.31800,-95.04898,8.64443
46.34000,-95.05673,8.58734
46.35200,-95.05283,8.55407
46.37400,-95.03268,8.48786
46.38600,-95.01760,8.44558
46.40800,-94.98837,8.35952
46.42000,-94.96267,8.31885
46.44200,-94.90834,8.24367
46.46400,-94.85168,8.17302
46.47600,-94.82174,8.13779
46.49800,-94.76144,8.08458
46.51000,-94.73125,8.06223
46.53200,-94.67093,8.02530
46.54400,-94.63315,8.00318
46.56600,-94.55047,7.95591
46.57800,-94.50340,7.92515
46.60000,-94.40816,7.86735
46.62200,-94.31538,7.82600
46.63400,-94.27046,7.80372
46.65600,-94.19201,7.78340
46.66800,-94.14603,7.78485
46.69000,-94.06573,7.78780
46.70200,-94.02798,7.79036
46.72400,-93.96919,7.81305
46.74600,-93.91300,7.84927
46.75800,-93.88537,7.86964
46.78000,-93.83548,7.90666
46.79200,-93.80714,7.92216
46.81400,-93.75488,7.95709
46.82600,-93.72755,7.98257
46.84800,-93.69236,8.03328
46.87000,-93.66840,8.07289
46.88200,-93.66175,8.08562
46.90400,-93.67123,8.11733
46.91600,-93.68677,8.15394
46.93800,-93.72009,8.23930
46.95000,-93.73847,8.28551
46.97200,-93.76210,8.36129
46.98400,-93.79185,8.38737
47.00600,-93.85083,8.43748
47.02800,-93.90333,8.50809
47.04000,-93.93324,8.55285
47.06200,-93.98836,8.59737
47.07400,-94.02538,8.61641
47.09600,-94.09468,8.66895
47.10800,-94.13444,8.70519
47.13000,-94.20346,8.77586
47.14700,-94.26580,8.80300
47.16900,-94.36793,8.80426
47.18100,-94.42323,8.81757
47.20300,-94.51385,8.87008
47.21500,-94.55904,8.89086
47.23700,-94.63434,8.90314
47.24900,-94.67517,8.89816
47.27100,-94.75391,8.90731
47.29300,-94.81599,8.92736
47.30500,-94.85032,8.93007
47.32700,-94.90688,8.91622
47.33900,-94.93623,8.89205
47.36100,-94.97839,8.85514
47.37300,-94.99992,8.85160
47.39500,-95.02293,8.85013
47.41700,-95.03560,8.83357
47.42900,-95.04236,8.81141
47.45100,-95.05843,8.75612
47.46300,-95.05386,8.73630
47.48500,-95.02277,8.68958
47.49700,-95.01376,8.65263
47.51900,-94.99427,8.58307
47.53100,-94.97712,8.55695
47.55300,-94.92707,8.52180
47.57500,-94.87740,8.47879
47.58700,-94.84924,8.44344
47.60900,-94.80198,8.36556
47.62100,-94.76319,8.33634
47.64300,-94.68021,8.29350
47.65500,-94.63251,8.26587
47.67700,-94.55161,8.20356
47.69900,-94.45810,8.14863
47.71100,-94.40526,8.12987
47.73300,-94.31909,8.08792
47.74500,-94.27782,8.06426
47.76700,-94.19566,8.01833
47.77900,-94.15266,8.00233
47.80100,-94.07710,7.98110
47.82300,-94.00869,7.97268
47.83500,-93.97084,7.97091
47.85700,-93.90253,7.96533
47.86900,-93.87044,7.96104
47.89100,-93.81768,7.95833
47.90300,-93.79317,7.95941
47.92500,-93.74529,7.97635
47.93700,-93.72401,7.99188
47.95900,-93.69434,8.02134
47.98100,-93.67407,8.04493
47.99300,-93.66706,8.06163
48.01500,-93.64606,8.09386
48.02700,-93.64510,8.10646
48.04900,-93.65957,8.12160
48.06100,-93.67396,8.13453
48.08300,-93.70056,8.16564
48.10500,-93.74000,8.21295
48.11700,-93.76617,8.23725
48.13900,-93.83134,8.28625
48.15100,-93.86631,8.31418
48.17300,-93.95229,8.36697
48.18500,-93.99787,8.40139
48.20700,-94.08305,8.46684
48.21929,-94.12563,8.49241
48.24100,-94.20602,8.52878
48.26300,-94.27915,8.58347
48.27500,-94.31973,8.61421
48.29700,-94.38837,8.65449
48.30900,-94.42346,8.66816
48.33100,-94.51395,8.67634
48.34300,-94.56609,8.68485
48.36500,-94.65186,8.72153
48.38700,-94.73682,8.76999
48.39900,-94.78345,8.78355
48.42100,-94.87212,8.80943
48.43300,-94.91225,8.82761
48.45500,-94.96616,8.85616
48.46700,-94.99000,8.85882
48.48900,-95.03718,8.84289
48.51100,-95.07146,8.81260
48.52300,-95.08538,8.81293
48.54500,-95.09226,8.81113
48.55700,-95.09517,8.80527
48.57900,-95.08978,8.78967
48.59100,-95.08604,8.77769
48.61300,-95.07493,8.75099
48.62500,-95.06705,8.73922
48.64700,-95.05193,8.70744
48.66900,-95.02517,8.67309
48.68100,-95.00263,8.65446
48.70300,-94.94499,8.62784
48.71500,-94.91869,8.61025
48.73700,-94.85043,8.55968
48.74900,-94.80833,8.52115
48.77100,-94.73450,8.45862
48.79300,-94.65610,8.41119
48.80500,-94.60544,8.39296
48.82700,-94.51941,8.34405
48.83900,-94.47833,8.31995
48.86100,-94.39007,8.29385
48.87300,-94.34298,8.28329
48.89500,-94.26808,8.25767
48.91700,-94.19547,8.22442
48.92900,-94.15673,8.20035
48.95100,-94.06986,8.16219
48.96300,-94.02621,8.14248
48.98500,-93.96004,8.08756
48.99700,-93.92293,8.05959
49.01900,-93.85941,8.01993
49.03100,-93.83195,8.00359
49.05300,-93.78725,7.99425
49.07500,-93.75367,7.97646
49.08700,-93.74498,7.96522
49.10900,-93.73781,7.96937
49.12100,-93.73316,7.98672
49.14800,-93.72009,8.00954
49.16000,-93.71599,8.00694
49.17200,-93.72450,8.01113
49.19400,-93.74529,8.03445
49.21600,-93.75533,8.07098
49.22800,-93.75700,8.08197
49.25000,-93.79558,8.07276
49.26200,-93.83086,8.07588
49.28400,-93.88223,8.11314
49.29600,-93.91476,8.14335
49.31800,-94.00055,8.18228
49.34000,-94.10046,8.20094
49.35200,-94.15873,8.22922
49.37400,-94.23507,8.30636
49.38600,-94.28156,8.34456
49.40800,-94.36089,8.38130
49.42000,-94.40803,8.38996
49.44200,-94.47459,8.40337
49.46400,-94.53683,8.45028
49.47600,-94.56886,8.47102
49.49800,-94.64864,8.49767
49.51000,-94.68715,8.51628
49.53200,-94.77209,8.56960
49.54400,-94.81280,8.60533
49.56600,-94.88963,8.66705
49.57800,-94.93414,8.68791
49.60000,-95.00748,8.72040
49.62200,-95.06075,8.76935
49.63400,-95.08044,8.79137
49.65600,-95.09844,8.81054
49.66800,-95.10617,8.80334
49.69000,-95.10906,8.78376
49.70200,-95.10328,8.78587
49.72400,-95.08854,8.80150
49.74600,-95.07682,8.80528
49.75800,-95.06991,8.79802
49.78000,-95.05167,8.79714
49.79200,-95.04696,8.80288
49.81400,-95.01382,8.83101
49.82600,-94.98609,8.83023
49.84800,-94.94588,8.78973
49.87000,-94.88901,8.75167
49.88200,-94.84715,8.73768
49.90400,-94.76749,8.71340
49.91600,-94.72221,8.69248
49.93800,-94.63623,8.62392
49.95000,-94.58559,8.58120
49.97200,-94.50810,8.53785
49.98400,-94.46319,8.52252
50.00600,-94.39246,8.49502
50.02800,-94.32984,8.45470
50.04000,-94.29456,8.43043
50.06200,-94.23311,8.39436
50.07400,-94.19650,8.38294
50.09600,-94.13360,8.36364
50.10800,-94.09646,8.34569
50.13000,-94.01973,8.28408
50.15200,-93.95361,8.19873
50.16400,-93.91875,8.16595
50.18600,-93.85464,8.12892
50.19800,-93.82724,8.11186
50.22000,-93.81351,8.06637
50.23200,-93.81390,8.04089
50.25400,-93.81840,8.00802
50.26600,-93.83072,8.00895
50.28800,-93.86035,8.02068
50.31000,-93.88416,8.03380
50.32200,-93.88843,8.02672
50.34400,-93.90438,8.00221
50.35600,-93.91545,7.99311
50.37800,-93.93530,7.99587
50.39000,-93.94199,7.99324
50.41200,-93.97632,7.97119
50.43400,-94.02050,7.96861
50.44600,-94.05561,7.97727
50.46800,-94.11723,8.03098
50.48000,-94.15983,8.06535
50.50200,-94.25619,8.11831
50.51400,-94.30524,8.14135
50.53600,-94.39541,8.18182
50.55800,-94.48072,8.24044
50.57000,-94.51933,8.27389
50.59200,-94.57944,8.31711
50.60400,-94.60833,8.33058
50.62600,-94.67124,8.35689
50.63800,-94.70206,8.38211
50.66000,-94.75370,8.43732
50.67200,-94.78980,8.46712
50.69400,-94.85480,8.51287
50.71600,-94.92875,8.57378
50.72800,-94.96406,8.61539
50.75000,-95.01491,8.69485
50.76200,-95.04056,8.72527
50.78400,-95.07789,8.77061
50.79600,-95.09220,8.80148
50.81800,-95.10328,8.85503
50.84000,-95.10718,8.90135
50.85200,-95.10342,8.91393
50.87400,-95.07737,8.91045
50.88600,-95.05680,8.89964
50.90800,-95.02396,8.89398
50.92000,-95.00491,8.90023
50.94200,-94.96646,8.91378
50.96400,-94.92902,8.92006
50.97600,-94.90798,8.90579
50.99800,-94.87939,8.89638
51.01000,-94.85764,8.89969
51.03200,-94.79423,8.90141
51.04400,-94.75436,8.88974
51.06600,-94.68260,8.83711
51.07800,-94.64141,8.81077
51.10000,-94.54753,8.77335
51.12200,-94.45652,8.73351
51.13400,-94.40764,8.69414
51.15100,-94.35039,8.63155
51.17300,-94.26358,8.57319
51.18500,-94.22089,8.55115
51.20700,-94.15329,8.50045
51.21900,-94.12636,8.47282
51.24100,-94.09251,8.42210
51.26300,-94.05774,8.37739
51.27500,-94.03242,8.36073
51.29700,-93.98876,8.29895
51.30900,-93.96928,8.25797
51.33100,-93.92133,8.18506
51.34300,-93.89436,8.14961
51.36500,-93.85062,8.07004
51.38700,-93.82955,8.00740
51.39900,-93.82512,7.97321
51.42100,-93.83961,7.94319
51.43300,-93.84250,7.94543
51.45500,-93.87463,7.93691
51.46700,-93.89245,7.92941
51.48900,-93.94704,7.91054
51.51100,-93.98906,7.90670
51.52300,-94.01128,7.91166
51.54500,-94.05586,7.90815
51.55700,-94.08129,7.90342
51.57900,-94.12032,7.90147
51.59100,-94.14066,7.90848
51.61300,-94.18677,7.92032
51.62500,-94.21790,7.93028
51.64700,-94.29494,7.95235
51.66900,-94.38771,7.99459
51.68100,-94.43660,8.02974
51.70300,-94.52441,8.09832
51.71500,-94.56826,8.13306
51.73700,-94.64929,8.19837
51.74900,-94.68532,8.23175
51.77100,-94.74178,8.29522
51.79300,-94.79728,8.34732
51.80500,-94.82548,8.37643
51.82700,-94.86323,8.43998
51.83900,-94.87936,8.47196
51.86100,-94.91235,8.51482
51.87300,-94.93407,8.54012
51.89500,-94.97141,8.61254
51.90729,-94.98461,8.65810
51.92900,-95.00431,8.72803
51.95100,-95.03902,8.77631
51.96300,-95.05652,8.80485
51.98500,-95.05037,8.86952
51.99700,-95.03466,8.90285
52.01900,-95.01538,8.92600
52.03100,-95.00208,8.93255
52.05300,-94.96243,8.94163
52.07500,-94.91934,8.96850
52.08700,-94.89274,8.97874
52.10900,-94.85125,8.98731
52.12100,-94.82687,8.97689
52.14300,-94.78129,8.97573
52.15500,-94.75479,8.98418
52.17700,-94.70676,9.00119
52.19900,-94.64217,8.98874
52.21100,-94.61247,8.96215
52.23300,-94.54948,8.91035
52.24500,-94.50667,8.88722
52.26700,-94.42630,8.83854
52.27900,-94.38730,8.80582
52.30100,-94.33395,8.74534
52.31300,-94.29621,8.71730
52.33500,-94.22696,8.67320
52.35700,-94.18021,8.61480
52.36900,-94.15430,8.57772
52.39100,-94.10804,8.49908
52.40300,-94.08662,8.46052
52.42500,-94.04765,8.41039
52.43700,-94.02238,8.37677
52.45900,-93.98780,8.30408
52.48100,-93.96239,8.22341
52.49300,-93.94779,8.18744
52.51500,-93.93093,8.11738
52.52700,-93.92638,8.07026
52.54900,-93.94189,8.00175
52.56100,-93.95143,7.97696
52.58300,-93.97834,7.94935
52.60500,-93.99823,7.92864
52.61700,-94.01334,7.91295
52.63900,-94.03841,7.87641
52.65100,-94.05786,7.85430
52.67300,-94.08839,7.84750
52.68500,-94.10672,7.84027
52.70700,-94.13409,7.81828
52.71900,-94.15382,7.80478
52.74100,-94.20170,7.80231
52.76300,-94.26458,7.83031
52.77500,-94.29183,7.85486
52.79700,-94.36434,7.88284
52.80900,-94.40430,7.89868
52.83100,-94.47533,7.93779
52.84300,-94.50928,7.97102
52.86500,-94.56017,8.04373
52.88700,-94.61697,8.10638
52.89900,-94.64716,8.13317
52.92100,-94.68464,8.18326
