Time,Phi (degrees),Theta (degrees),Yaw (degrees)
0.01200,-0.42252,-0.47659,-13.64858
0.03400,-1.16220,-1.07637,-38.22609
0.04600,-1.44282,-1.33519,-51.70483
0.06800,-1.90179,-1.79990,-63.79756
0.09000,-2.21280,-2.21587,-75.02252
0.10200,-2.31909,-2.39742,-80.51272
0.12400,-2.55479,-2.69413,-89.78882
0.13600,-2.60112,-2.78878,-93.95882
0.15800,-2.72662,-2.99515,-100.73624
0.17000,-2.77033,-3.06313,-103.53601
0.19200,-2.85015,-3.23628,-108.46764
0.20400,-2.88452,-3.29301,-110.89880
0.22600,-2.95681,-3.36759,-114.33641
0.24800,-2.95542,-3.37760,-117.14424
0.26000,-2.98347,-3.40132,-118.33978
0.28200,-3.03472,-3.42195,-120.70926
0.29400,-3.06736,-3.45419,-121.44562
0.31600,-3.08275,-3.51136,-122.79798
0.32800,-3.11235,-3.54559,-123.31750
0.35000,-3.20141,-3.52856,-124.63455
0.37200,-3.20469,-3.57228,-124.86985
0.38400,-3.22983,-3.58426,-125.23219
0.40600,-3.27311,-3.59225,-125.77936
0.41800,-3.25109,-3.61124,-125.87560
0.44000,-3.21142,-3.62067,-126.26116
0.45200,-3.22045,-3.63135,-126.38270
0.47400,-3.17861,-3.69293,-126.57001
0.48628,-3.16802,-3.70333,-126.67067
0.50800,-3.14697,-3.76985,-126.73429
0.53000,-3.20545,-3.77073,-127.01048
0.54200,-3.22481,-3.76384,-127.02751
0.56400,-3.19557,-3.75375,-127.22479
0.57600,-3.17005,-3.73672,-127.36485
0.59800,-3.11931,-3.71906,-127.63889
0.61000,-3.13626,-3.72185,-127.59909
0.63200,-3.14359,-3.72452,-127.43826
0.65400,-3.15142,-3.66837,-127.43095
0.66600,-3.15700,-3.66734,-127.74306
0.68300,-3.18654,-3.67195,-127.64526
0.70500,-3.17141,-3.68378,-127.73494
0.71700,-3.18099,-3.69143,-127.62559
0.73900,-3.21393,-3.65740,-127.40698
0.75100,-3.18479,-3.65705,-127.60679
0.77300,-3.21710,-3.65584,-127.84654
0.79500,-3.15867,-3.72164,-127.77076
0.80700,-3.14468,-3.72570,-127.67935
0.82900,-3.10879,-3.73473,-127.41350
0.84100,-3.09860,-3.73175,-127.36055
0.86300,-3.14494,-3.78098,-127.28240
0.87500,-3.13520,-3.78693,-127.47469
0.89700,-3.14949,-3.79449,-127.30900
0.91900,-3.13794,-3.78824,-127.58973
0.93100,-3.17018,-3.76099,-127.49783
0.95300,-3.14728,-3.73401,-127.67394
0.96500,-3.15773,-3.74942,-127.61698
0.98700,-3.15022,-3.73330,-127.87327
0.99900,-3.16583,-3.73467,-127.83904
1.02100,-3.17958,-3.74575,-127.55292
1.03328,-3.19248,-3.76511,-127.39235
1.05500,-3.22359,-3.72199,-127.40250
1.07700,-3.21116,-3.74976,-127.21961
1.08900,-3.23717,-3.75746,-127.30012
1.11100,-3.24378,-3.75068,-127.50703
1.12300,-3.24510,-3.75303,-127.48636
1.14500,-3.22962,-3.78612,-127.48629
1.15700,-3.22237,-3.79999,-127.39829
1.17900,-3.19043,-3.79118,-127.23067
1.20100,-3.18165,-3.80371,-127.50326
1.21300,-3.19521,-3.79932,-127.58641
1.23500,-3.16408,-3.82600,-127.65889
1.24700,-3.19218,-3.84688,-127.55401
1.26900,-3.18547,-3.82037,-127.58866
1.28100,-3.19978,-3.81539,-127.54551
1.30300,-3.20241,-3.79566,-127.52833
1.32500,-3.22397,-3.77667,-127.19970
1.33700,-3.23095,-3.79257,-127.21152
1.35900,-3.24880,-3.81426,-126.85944
1.37100,-3.24763,-3.81782,-126.96027
1.39300,-3.22957,-3.81835,-127.33413
1.40500,-3.22895,-3.82192,-127.42670
1.42700,-3.25278,-3.79871,-127.45545
1.43900,-3.25119,-3.78273,-127.50241
1.46100,-3.27491,-3.77923,-127.67420
1.48300,-3.24364,-3.77387,-127.66006
1.49500,-3.24115,-3.75522,-127.66217
1.51700,-3.28943,-3.75736,-127.86320
1.52900,-3.29769,-3.75746,-127.91904
1.55100,-3.30441,-3.75574,-128.00830
1.56300,-3.29949,-3.76657,-127.92002
1.58500,-3.28296,-3.81426,-127.88454
1.60700,-3.27830,-3.82477,-127.91425
1.61900,-3.27844,-3.83724,-127.89803
1.64100,-3.32879,-3.80647,-127.93318
1.65300,-3.32594,-3.81673,-127.90620
1.67500,-3.33299,-3.80641,-127.91513
1.68700,-3.31752,-3.80873,-127.91863
1.70900,-3.32111,-3.80540,-127.81037
1.73100,-3.31753,-3.79660,-127.74670
1.74300,-3.32506,-3.79390,-127.69968
1.76500,-3.33183,-3.79807,-127.73933
1.77700,-3.32592,-3.79641,-127.70264
1.79900,-3.32462,-3.81724,-127.80301
1.81100,-3.33199,-3.80301,-127.78229
1.83300,-3.32903,-3.81524,-127.85761
1.84500,-3.33957,-3.81393,-127.87392
1.86700,-3.34308,-3.81125,-127.79977
1.88900,-3.33053,-3.79675,-127.63694
1.90100,-3.33152,-3.79949,-127.69096
1.92300,-3.33000,-3.81573,-127.55371
1.93500,-3.32360,-3.81661,-127.61086
1.95700,-3.30696,-3.82852,-127.66936
1.96900,-3.30863,-3.81536,-127.62776
1.99100,-3.26551,-3.81623,-127.56498
2.01300,-3.28334,-3.80270,-127.48222
2.02500,-3.28950,-3.79962,-127.47559
2.04700,-3.28634,-3.78562,-127.41727
2.05900,-3.28991,-3.79632,-127.52294
2.08100,-3.28317,-3.79376,-127.53845
2.09300,-3.28080,-3.79439,-127.51478
2.11500,-3.29854,-3.77976,-127.57758
2.13700,-3.31457,-3.78660,-127.52394
2.14900,-3.31867,-3.78085,-127.43237
2.17100,-3.32946,-3.78782,-127.47105
2.18300,-3.33208,-3.79255,-127.41982
2.20500,-3.32671,-3.78754,-127.22737
2.21700,-3.32272,-3.78800,-127.19288
2.23900,-3.31997,-3.80980,-127.23074
2.25100,-3.32931,-3.80919,-127.16204
2.27300,-3.33084,-3.80133,-127.22433
2.29500,-3.33541,-3.81009,-127.29748
2.30700,-3.34047,-3.80222,-127.34401
2.32900,-3.32640,-3.80084,-127.56596
2.34100,-3.32949,-3.79754,-127.49457
2.36300,-3.34602,-3.79568,-127.38880
2.37500,-3.35371,-3.78997,-127.32177
2.39700,-3.34315,-3.78214,-127.28094
2.41900,-3.36096,-3.78616,-127.12047
2.43100,-3.36815,-3.78479,-127.21410
2.45300,-3.36591,-3.79089,-127.23131
2.46500,-3.36976,-3.79089,-127.25080
2.48700,-3.37003,-3.78779,-127.29763
2.49900,-3.37870,-3.78889,-127.30311
2.52100,-3.37916,-3.78832,-127.27784
2.53300,-3.37530,-3.78970,-127.23333
2.55500,-3.38745,-3.79421,-127.30316
2.57700,-3.38163,-3.78297,-127.31371
2.58900,-3.38189,-3.78642,-127.26703
2.61100,-3.38889,-3.79187,-127.32484
2.62300,-3.39613,-3.79365,-127.31099
2.64500,-3.40879,-3.79595,-127.36105
2.65700,-3.41348,-3.79719,-127.34652
2.68400,-3.42600,-3.79418,-127.31059
2.69600,-3.42578,-3.80111,-127.30756
2.71800,-3.41934,-3.80035,-127.28616
2.73000,-3.42360,-3.79981,-127.25336
2.75200,-3.43768,-3.79769,-127.27531
2.76400,-3.43863,-3.79566,-127.28266
2.78600,-3.44239,-3.79286,-127.26875
2.79800,-3.44530,-3.79398,-127.27273
2.82000,-3.45829,-3.79051,-127.28170
2.84200,-3.45892,-3.78675,-127.23091
2.85400,-3.46320,-3.79393,-127.22958
2.87600,-3.47434,-3.78245,-127.25612
2.88800,-3.47528,-3.78088,-127.25486
2.91000,-3.46911,-3.78327,-127.25631
2.92200,-3.47489,-3.78386,-127.23415
2.94400,-3.48522,-3.78250,-127.23225
2.96600,-3.49285,-3.78949,-127.20260
2.97800,-3.49713,-3.78880,-127.20052
3.00000,-3.50629,-3.78587,-127.18008
3.01200,-3.51450,-3.79122,-127.16830
3.03400,-3.52971,-3.79412,-127.18553
3.04600,-3.53605,-3.79597,-127.18342
3.06800,-3.54454,-3.80195,-127.16245
3.08000,-3.54905,-3.80287,-127.15308
3.10200,-3.55334,-3.80154,-127.14088
3.12400,-3.56760,-3.80231,-127.12820
3.13600,-3.57248,-3.80035,-127.12107
3.15800,-3.57857,-3.80789,-127.12738
3.17000,-3.58110,-3.80384,-127.12373
3.19200,-3.58583,-3.81333,-127.11290
3.20400,-3.59046,-3.81553,-127.10704
3.22600,-3.59922,-3.81835,-127.10387
3.24800,-3.61122,-3.82331,-127.09997
3.26000,-3.61607,-3.82182,-127.09909
3.28200,-3.62604,-3.82584,-127.10487
3.29400,-3.63384,-3.82105,-127.09615
3.31600,-3.64422,-3.81878,-127.09104
3.32800,-3.65043,-3.81649,-127.09226
3.35000,-3.66627,-3.81040,-127.08178
3.37200,-3.67770,-3.81302,-127.07172
3.38400,-3.68196,-3.81294,-127.07495
3.40600,-3.69756,-3.80948,-127.05321
3.41800,-3.70010,-3.81505,-127.04162
3.44000,-3.70825,-3.80912,-127.04314
3.45200,-3.71393,-3.81137,-127.04559
3.47400,-3.72445,-3.81871,-127.04016
3.48600,-3.73028,-3.81679,-127.03068
3.50800,-3.74046,-3.81737,-127.02437
3.53000,-3.75009,-3.82084,-127.01993
3.54200,-3.75226,-3.81864,-127.02292
3.56400,-3.75555,-3.82501,-127.00069
3.57600,-3.76275,-3.83230,-127.00156
3.59800,-3.77257,-3.82505,-126.99796
3.61000,-3.77453,-3.82598,-127.00230
3.63200,-3.77944,-3.83080,-127.01305
3.65400,-3.78817,-3.83464,-127.01859
3.66600,-3.79061,-3.83187,-127.01340
3.68800,-3.80171,-3.83444,-126.98975
3.70000,-3.80387,-3.83515,-126.97959
3.72200,-3.81414,-3.83954,-126.96206
3.73400,-3.81858,-3.83784,-126.95810
3.75600,-3.82860,-3.84259,-126.93448
3.77800,-3.83871,-3.83994,-126.93867
3.79000,-3.84707,-3.84115,-126.92284
3.81200,-3.84941,-3.83766,-126.93024
3.82400,-3.85115,-3.83334,-126.91949
3.84600,-3.85432,-3.83837,-126.91364
3.85800,-3.85919,-3.83335,-126.91212
3.88000,-3.86419,-3.83786,-126.92632
3.89200,-3.86677,-3.83999,-126.92387
3.91400,-3.87249,-3.84612,-126.92017
3.93600,-3.87827,-3.84871,-126.91061
3.94800,-3.88096,-3.85020,-126.90608
3.97000,-3.88268,-3.84677,-126.89079
3.98200,-3.88849,-3.85030,-126.89062
4.00400,-3.89305,-3.85924,-126.86820
4.01600,-3.89887,-3.85416,-126.86178
4.03800,-3.89319,-3.86634,-126.85356
4.06000,-3.89735,-3.86027,-126.84774
4.07200,-3.90013,-3.85759,-126.84705
4.09400,-3.89640,-3.86084,-126.85621
4.10600,-3.90084,-3.85778,-126.83917
4.12800,-3.90255,-3.85931,-126.83616
4.14000,-3.90398,-3.85756,-126.83207
4.16200,-3.90910,-3.85924,-126.83472
4.17400,-3.91299,-3.86157,-126.82912
4.19600,-3.92045,-3.85754,-126.78642
4.21800,-3.92428,-3.86388,-126.77487
4.23000,-3.92655,-3.86721,-126.76847
4.25200,-3.93156,-3.86841,-126.76135
4.26400,-3.93405,-3.86836,-126.75015
4.28600,-3.93540,-3.86248,-126.73615
4.29800,-3.93857,-3.86561,-126.73007
4.32000,-3.94027,-3.86885,-126.73289
4.34200,-3.94707,-3.86599,-126.70732
4.35400,-3.94912,-3.86830,-126.69861
4.37600,-3.95452,-3.87093,-126.69463
4.38800,-3.95657,-3.86759,-126.68376
4.41000,-3.96596,-3.86537,-126.68704
4.42200,-3.97219,-3.86708,-126.66547
4.44400,-3.97934,-3.85922,-126.65983
4.46600,-3.98022,-3.85804,-126.66891
4.47800,-3.98192,-3.86089,-126.66824
4.50000,-3.98526,-3.84988,-126.68594
4.51200,-3.98957,-3.85240,-126.68150
4.53400,-3.98945,-3.85958,-126.66878
4.54600,-3.98974,-3.85895,-126.66753
4.56800,-3.99950,-3.85823,-126.65533
4.58000,-4.00508,-3.85508,-126.65919
4.60200,-4.00582,-3.85863,-126.64925
4.62400,-4.00954,-3.86965,-126.64890
4.63600,-4.01479,-3.86657,-126.63306
4.65800,-4.01778,-3.87063,-126.61562
4.67000,-4.02048,-3.87347,-126.62408
4.68700,-4.02120,-3.86616,-126.62098
4.70900,-4.02810,-3.86730,-126.60818
4.72100,-4.02886,-3.87058,-126.61652
4.74300,-4.03754,-3.85825,-126.61642
4.76500,-4.04278,-3.86201,-126.62066
4.77700,-4.03978,-3.86145,-126.61205
4.79900,-4.04868,-3.86340,-126.60793
4.81100,-4.05239,-3.86744,-126.60873
4.83300,-4.05254,-3.86178,-126.59328
4.84500,-4.05415,-3.85968,-126.58811
4.86700,-4.05529,-3.86397,-126.58398
4.88900,-4.06378,-3.86527,-126.58461
4.90100,-4.06508,-3.86337,-126.57717
4.92300,-4.06961,-3.87038,-126.59140
4.93500,-4.07039,-3.86819,-126.58636
4.95700,-4.07266,-3.86538,-126.57254
4.96900,-4.07100,-3.86585,-126.56285
4.99100,-4.06991,-3.86989,-126.55877
5.01300,-4.07590,-3.87222,-126.57410
5.02500,-4.07914,-3.86968,-126.57429
5.04700,-4.07823,-3.87004,-126.57228
5.05900,-4.07882,-3.86853,-126.56975
5.08100,-4.08553,-3.86756,-126.58874
5.09300,-4.08627,-3.86474,-126.58625
5.11500,-4.08605,-3.87136,-126.58364
5.12700,-4.08859,-3.86972,-126.57527
5.14900,-4.09582,-3.87121,-126.57442
5.17100,-4.10631,-3.87683,-126.56572
5.18300,-4.10789,-3.87834,-126.56349
5.20500,-4.11141,-3.87785,-126.57564
5.21700,-4.11594,-3.87743,-126.56271
5.23900,-4.11214,-3.87653,-126.55945
5.25100,-4.11389,-3.87807,-126.55285
5.27300,-4.11623,-3.88177,-126.53757
5.29500,-4.11514,-3.88122,-126.53090
5.30700,-4.11517,-3.88155,-126.54243
5.32900,-4.11628,-3.87974,-126.54170
5.34100,-4.11941,-3.88523,-126.53664
5.36300,-4.12055,-3.88711,-126.53646
5.37500,-4.12167,-3.88670,-126.53406
5.39700,-4.12353,-3.88963,-126.53698
5.41900,-4.12356,-3.88374,-126.51289
5.43100,-4.12133,-3.88785,-126.51112
5.45300,-4.13328,-3.88387,-126.52676
5.46500,-4.13492,-3.87925,-126.52589
5.48700,-4.14127,-3.88586,-126.52449
5.49900,-4.14278,-3.88631,-126.51403
5.52100,-4.15068,-3.88641,-126.50485
5.53300,-4.15326,-3.88750,-126.49548
5.55500,-4.15862,-3.88481,-126.49100
5.57700,-4.16162,-3.88293,-126.48419
5.58900,-4.16323,-3.88177,-126.46939
5.61100,-4.16368,-3.87894,-126.48042
5.62300,-4.16491,-3.87692,-126.47201
5.64500,-4.17089,-3.87817,-126.47115
5.65700,-4.17188,-3.87879,-126.46615
5.67900,-4.17693,-3.89372,-126.46238
5.70100,-4.18082,-3.89289,-126.45039
5.71300,-4.18048,-3.89474,-126.44466
5.73500,-4.18258,-3.89391,-126.43941
5.74700,-4.18346,-3.89301,-126.44204
5.76900,-4.18192,-3.89510,-126.41846
5.78100,-4.18307,-3.89866,-126.41316
5.80300,-4.18670,-3.90363,-126.42286
5.81528,-4.18757,-3.90513,-126.40572
5.83700,-4.19611,-3.90425,-126.41439
5.85900,-4.19252,-3.90510,-126.42238
5.87100,-4.19168,-3.90339,-126.40993
5.89300,-4.19180,-3.90832,-126.39626
5.90500,-4.19340,-3.90841,-126.38062
5.92700,-4.19510,-3.90750,-126.39471
5.93900,-4.19579,-3.90928,-126.39483
5.96100,-4.19454,-3.91061,-126.39448
5.98300,-4.19395,-3.90998,-126.40096
5.99500,-4.19738,-3.90969,-126.39629
6.01700,-4.19435,-3.91055,-126.40307
6.02900,-4.19424,-3.91348,-126.40282
6.05100,-4.19988,-3.91251,-126.39989
6.06300,-4.20360,-3.90865,-126.39192
6.08500,-4.20583,-3.90957,-126.39623
6.10700,-4.21159,-3.91105,-126.38964
6.11900,-4.20903,-3.90880,-126.39871
6.14100,-4.21422,-3.90368,-126.42225
6.15300,-4.21632,-3.90639,-126.41807
6.17500,-4.21945,-3.90085,-126.41570
6.18700,-4.22001,-3.90805,-126.44144
6.20900,-4.22585,-3.90264,-126.43860
6.22100,-4.22540,-3.90393,-126.43532
6.24300,-4.22859,-3.91053,-126.42046
6.26500,-4.23781,-3.90934,-126.43055
6.27700,-4.23859,-3.91260,-126.42844
6.29900,-4.24213,-3.90956,-126.41553
6.31100,-4.24031,-3.91327,-126.41014
6.33300,-4.24405,-3.92268,-126.42521
6.34500,-4.24436,-3.91569,-126.42391
6.36700,-4.24768,-3.93125,-126.41446
6.38900,-4.25290,-3.93047,-126.41116
6.40100,-4.25587,-3.92934,-126.40167
6.42300,-4.25793,-3.93289,-126.42271
6.43500,-4.25953,-3.92888,-126.42136
6.45700,-4.25769,-3.92636,-126.40368
6.46900,-4.25710,-3.92796,-126.40295
6.49100,-4.26159,-3.92774,-126.39330
6.51300,-4.25852,-3.92611,-126.40167
6.52500,-4.25803,-3.92677,-126.39249
6.54700,-4.26380,-3.92116,-126.39118
6.55900,-4.26407,-3.92392,-126.38538
6.58100,-4.27145,-3.91708,-126.34292
6.59300,-4.27452,-3.91912,-126.34190
6.61500,-4.26975,-3.92596,-126.34255
6.62700,-4.27099,-3.92547,-126.32930
6.64900,-4.27733,-3.92422,-126.35821
6.67100,-4.28071,-3.92921,-126.34826
6.68800,-4.28212,-3.93069,-126.33512
6.70000,-4.28312,-3.93373,-126.33183
6.72200,-4.28512,-3.94151,-126.34715
6.73400,-4.28654,-3.94058,-126.34587
6.75600,-4.28346,-3.94326,-126.35612
6.76800,-4.28424,-3.94595,-126.35296
6.79000,-4.28191,-3.94245,-126.34309
6.81200,-4.27798,-3.94542,-126.33514
6.82400,-4.27654,-3.94189,-126.33897
6.84600,-4.27589,-3.94092,-126.33488
6.85800,-4.27427,-3.94297,-126.34173
6.88000,-4.27715,-3.93513,-126.33353
6.89200,-4.27383,-3.93899,-126.32391
6.91400,-4.26378,-3.93245,-126.31923
6.93600,-4.25797,-3.93422,-126.31404
6.94800,-4.25890,-3.93350,-126.32378
6.97000,-4.25904,-3.93205,-126.34653
6.98200,-4.26026,-3.93141,-126.33173
7.00400,-4.26260,-3.92565,-126.33645
7.01600,-4.26227,-3.92379,-126.32762
7.03800,-4.25870,-3.92083,-126.31168
7.06000,-4.26695,-3.92502,-126.32432
7.07200,-4.26757,-3.92025,-126.32755
7.09400,-4.26060,-3.91648,-126.35432
7.10600,-4.25931,-3.91813,-126.34625
7.12800,-4.26053,-3.91017,-126.35477
7.14000,-4.26194,-3.91011,-126.34586
7.16200,-4.25736,-3.92401,-126.33680
7.17400,-4.25656,-3.92332,-126.33202
7.19600,-4.26129,-3.91662,-126.31687
7.21800,-4.25687,-3.92079,-126.33527
7.23000,-4.25404,-3.91725,-126.33497
7.25200,-4.25331,-3.91800,-126.35625
7.26400,-4.25554,-3.91853,-126.33882
7.28600,-4.25444,-3.90805,-126.34117
7.29800,-4.25276,-3.90856,-126.34511
7.32000,-4.25268,-3.90606,-126.34262
7.34200,-4.25529,-3.90128,-126.33901
7.35400,-4.25893,-3.90229,-126.33681
7.37600,-4.25116,-3.89855,-126.33022
7.38800,-4.24707,-3.90013,-126.33482
7.41000,-4.24691,-3.90191,-126.34036
7.42200,-4.24673,-3.89912,-126.34701
7.44400,-4.25015,-3.90210,-126.34112
7.46600,-4.25295,-3.89857,-126.35004
7.47800,-4.25418,-3.89858,-126.35978
7.50000,-4.25487,-3.90184,-126.34008
7.51200,-4.25560,-3.90166,-126.33547
7.53400,-4.25523,-3.89899,-126.32595
7.54600,-4.24929,-3.89938,-126.32164
7.56800,-4.24737,-3.89628,-126.31038
7.58000,-4.24636,-3.89841,-126.30471
7.60200,-4.25197,-3.89621,-126.29598
7.62400,-4.24920,-3.89661,-126.31403
7.63600,-4.24806,-3.89466,-126.30307
7.65800,-4.24794,-3.89623,-126.31100
7.67000,-4.24855,-3.89145,-126.31487
7.69200,-4.24830,-3.89943,-126.31593
7.70400,-4.24996,-3.89623,-126.30131
7.72600,-4.25640,-3.89575,-126.30606
7.74800,-4.25986,-3.89274,-126.29443
7.76000,-4.26253,-3.89197,-126.29230
7.78200,-4.25835,-3.89646,-126.30309
7.79400,-4.25750,-3.89433,-126.30314
7.81600,-4.25488,-3.88914,-126.30132
7.82800,-4.25431,-3.89308,-126.28891
7.85000,-4.25937,-3.88252,-126.28764
7.86200,-4.25569,-3.88360,-126.28363
7.88400,-4.25750,-3.88970,-126.27979
7.90600,-4.26004,-3.88716,-126.26543
7.91800,-4.26429,-3.88577,-126.27322
7.94000,-4.26403,-3.88985,-126.26335
7.95200,-4.26637,-3.88568,-126.26381
7.97400,-4.26471,-3.88175,-126.25660
7.98600,-4.26505,-3.88127,-126.25051
8.00800,-4.26423,-3.87236,-126.23302
8.03000,-4.26661,-3.87838,-126.22421
8.04200,-4.26227,-3.87694,-126.22345
8.06400,-4.25014,-3.88457,-126.19798
8.07600,-4.24931,-3.88366,-126.19569
8.09800,-4.25075,-3.88330,-126.19456
8.11000,-4.25032,-3.87911,-126.19779
8.13200,-4.24973,-3.88047,-126.20156
8.15400,-4.25101,-3.88749,-126.20745
8.16600,-4.25262,-3.88733,-126.22234
8.18800,-4.25494,-3.88738,-126.22708
8.20000,-4.25540,-3.88772,-126.24111
8.22200,-4.25346,-3.89085,-126.24105
8.23400,-4.25281,-3.88993,-126.24145
8.25600,-4.25071,-3.88675,-126.21664
8.26800,-4.24903,-3.88578,-126.21051
8.29000,-4.24223,-3.89212,-126.21455
8.31200,-4.24316,-3.89309,-126.20061
8.32400,-4.24134,-3.89073,-126.20084
8.34600,-4.24122,-3.89064,-126.19111
8.35800,-4.24015,-3.88980,-126.19547
8.38000,-4.23787,-3.89857,-126.18851
8.39200,-4.23352,-3.90300,-126.18140
8.41400,-4.23320,-3.90707,-126.19323
8.43600,-4.23159,-3.91251,-126.21333
8.44800,-4.22884,-3.90985,-126.21001
8.47000,-4.22421,-3.91224,-126.19655
8.48200,-4.22292,-3.91373,-126.19031
8.50400,-4.22325,-3.90980,-126.16131
8.51600,-4.21928,-3.91066,-126.15670
8.53800,-4.21742,-3.89994,-126.17334
8.56000,-4.21218,-3.89760,-126.15531
8.57200,-4.20645,-3.90166,-126.15166
8.59400,-4.20888,-3.89218,-126.16653
8.60600,-4.20840,-3.89191,-126.16789
8.62800,-4.21410,-3.89721,-126.15929
8.64000,-4.21562,-3.89606,-126.14946
8.66200,-4.20919,-3.89730,-126.16233
8.67400,-4.20607,-3.89730,-126.16040
8.70100,-4.19724,-3.89899,-126.14230
8.71300,-4.19470,-3.89951,-126.15777
8.73500,-4.19397,-3.89693,-126.16738
8.74700,-4.19331,-3.89593,-126.16449
8.76900,-4.19547,-3.90543,-126.17863
8.78100,-4.19391,-3.90579,-126.18376
8.80300,-4.19311,-3.90217,-126.18341
8.81500,-4.19174,-3.90431,-126.18356
8.83700,-4.19269,-3.89922,-126.19868
8.85900,-4.19347,-3.89122,-126.19850
8.87100,-4.19363,-3.89286,-126.20204
8.89300,-4.19493,-3.88204,-126.18943
8.90500,-4.19296,-3.88376,-126.19431
8.92700,-4.20091,-3.88259,-126.19047
8.93900,-4.20069,-3.88142,-126.20248
8.96100,-4.20615,-3.87775,-126.18367
8.98300,-4.20444,-3.87619,-126.17007
8.99500,-4.20428,-3.88127,-126.16826
9.01700,-4.20300,-3.87300,-126.17113
9.02900,-4.20236,-3.87759,-126.18010
9.05100,-4.20118,-3.88105,-126.16416
9.06300,-4.19974,-3.88112,-126.15901
9.08500,-4.19367,-3.88983,-126.13822
9.10700,-4.19137,-3.88727,-126.14565
9.11900,-4.19503,-3.88510,-126.14018
9.14100,-4.19294,-3.88312,-126.16035
9.15300,-4.19548,-3.88327,-126.16927
9.17500,-4.18307,-3.87437,-126.16035
9.18700,-4.17832,-3.87598,-126.17028
9.20900,-4.17373,-3.87585,-126.13871
9.22100,-4.17113,-3.87477,-126.14436
9.24300,-4.17085,-3.87485,-126.14162
9.26500,-4.16820,-3.87363,-126.16945
9.27700,-4.16530,-3.87462,-126.17272
9.29900,-4.16126,-3.87071,-126.18472
9.31100,-4.16219,-3.87020,-126.18661
9.33300,-4.16343,-3.87417,-126.20113
9.34500,-4.15977,-3.87256,-126.20379
9.36700,-4.16384,-3.87027,-126.21587
9.38900,-4.16398,-3.87331,-126.20305
9.40100,-4.16383,-3.87633,-126.20399
9.42300,-4.16270,-3.87189,-126.21816
9.43500,-4.15937,-3.87179,-126.20934
9.45700,-4.15837,-3.87613,-126.20503
9.46900,-4.16111,-3.87683,-126.20223
9.49100,-4.15713,-3.87740,-126.18179
9.50300,-4.15690,-3.87796,-126.18341
9.52500,-4.15274,-3.87791,-126.17915
9.54700,-4.15182,-3.88562,-126.18622
9.55900,-4.14801,-3.88655,-126.19556
9.58100,-4.14252,-3.87766,-126.18829
9.59300,-4.13879,-3.88592,-126.18288
9.61500,-4.13782,-3.88136,-126.18796
9.62700,-4.13574,-3.88147,-126.19376
9.64900,-4.14171,-3.87519,-126.18162
9.67100,-4.14409,-3.87541,-126.16602
9.68300,-4.14118,-3.87406,-126.16228
9.70500,-4.13942,-3.87058,-126.18513
9.71700,-4.13709,-3.86828,-126.18416
9.73900,-4.13536,-3.86508,-126.18115
9.75100,-4.13357,-3.86676,-126.18824
9.77300,-4.13467,-3.86323,-126.16482
9.79500,-4.13664,-3.86404,-126.17277
9.80700,-4.13539,-3.86344,-126.18098
9.82900,-4.13198,-3.86330,-126.18233
9.84100,-4.13358,-3.86988,-126.18699
9.86300,-4.14059,-3.86862,-126.18808
9.87500,-4.14137,-3.86893,-126.18922
9.89700,-4.14280,-3.86250,-126.20699
9.90900,-4.14284,-3.86573,-126.20422
9.93100,-4.13795,-3.86304,-126.22045
9.95300,-4.13651,-3.86287,-126.20637
9.96500,-4.13554,-3.86378,-126.20258
9.98700,-4.13739,-3.86752,-126.20998
9.99900,-4.13876,-3.87081,-126.21020
10.02100,-4.13813,-3.87257,-126.21360
10.03300,-4.13658,-3.87708,-126.21711
10.05500,-4.13866,-3.87552,-126.23114
10.07700,-4.13982,-3.87353,-126.23375
10.08900,-4.13936,-3.87520,-126.24751
10.11100,-4.13968,-3.86901,-126.24634
10.12300,-4.13678,-3.86622,-126.24642
10.14500,-4.13846,-3.86886,-126.24908
10.15700,-4.13698,-3.86999,-126.24764
10.17900,-4.13476,-3.87327,-126.25559
10.20100,-4.13289,-3.87006,-126.25674
10.21300,-4.13502,-3.87501,-126.25070
10.23500,-4.13142,-3.87734,-126.25366
10.24700,-4.12742,-3.87415,-126.25700
10.26900,-4.13003,-3.87470,-126.24198
10.28100,-4.13075,-3.87402,-126.23059
10.30300,-4.13602,-3.86688,-126.22788
10.31500,-4.13418,-3.86575,-126.23129
10.33700,-4.14040,-3.85873,-126.24390
10.35900,-4.13442,-3.85370,-126.23640
10.37100,-4.13435,-3.85424,-126.23284
10.39300,-4.13307,-3.85344,-126.22923
10.40500,-4.13456,-3.85671,-126.22163
10.42700,-4.13403,-3.85668,-126.24429
10.43900,-4.13015,-3.85803,-126.23873
10.46100,-4.12898,-3.85605,-126.24391
10.48300,-4.12269,-3.85057,-126.24332
10.49500,-4.12532,-3.84590,-126.24058
10.51700,-4.12306,-3.84445,-126.24307
10.52900,-4.12337,-3.84285,-126.24428
10.55100,-4.12622,-3.84612,-126.25163
10.56300,-4.12365,-3.84475,-126.24556
10.58500,-4.12123,-3.84555,-126.24445
10.59728,-4.12202,-3.84333,-126.24855
10.62000,-4.11585,-3.83562,-126.22540
10.64200,-4.11323,-3.83973,-126.22639
10.65400,-4.11273,-3.83735,-126.22990
10.67600,-4.11143,-3.83882,-126.23711
10.69300,-4.10760,-3.83594,-126.23795
10.70500,-4.10849,-3.83651,-126.24139
10.72700,-4.10892,-3.84093,-126.25857
10.73900,-4.10738,-3.84095,-126.25237
10.76100,-4.10829,-3.84284,-126.24269
10.78300,-4.10812,-3.84188,-126.22878
10.79500,-4.10820,-3.84000,-126.22215
10.81700,-4.10700,-3.84695,-126.23058
10.82900,-4.10431,-3.84523,-126.24818
10.85100,-4.10166,-3.84613,-126.22750
10.86300,-4.10373,-3.84513,-126.22651
10.88500,-4.10124,-3.84486,-126.26482
10.89700,-4.09907,-3.85187,-126.27960
10.91900,-4.09957,-3.84838,-126.27077
10.94100,-4.09777,-3.84098,-126.26818
10.95300,-4.09819,-3.84413,-126.27222
10.97500,-4.09639,-3.84219,-126.27326
10.98700,-4.09888,-3.84145,-126.27174
11.00900,-4.09036,-3.83672,-126.25828
11.02100,-4.08476,-3.83907,-126.26056
11.04300,-4.08221,-3.83534,-126.27773
11.06500,-4.07971,-3.84024,-126.26228
11.07700,-4.08078,-3.84023,-126.24854
11.09900,-4.07905,-3.84724,-126.26600
11.11100,-4.07710,-3.84682,-126.26295
11.13300,-4.08072,-3.85256,-126.25938
11.14500,-4.08040,-3.85492,-126.25082
11.16700,-4.07672,-3.85733,-126.24277
11.18900,-4.08332,-3.85089,-126.24981
11.20100,-4.07931,-3.85189,-126.25568
11.22300,-4.07889,-3.85186,-126.27991
11.23500,-4.07520,-3.85143,-126.28791
11.25700,-4.07329,-3.84013,-126.28363
11.26900,-4.06884,-3.84458,-126.28323
11.29100,-4.06603,-3.85148,-126.27310
11.30300,-4.06578,-3.85306,-126.28708
11.32500,-4.06154,-3.85432,-126.28357
11.34700,-4.05446,-3.84711,-126.27533
11.35900,-4.05332,-3.84810,-126.28501
11.38100,-4.05224,-3.84992,-126.27814
11.39300,-4.04995,-3.85054,-126.27163
11.41500,-4.05044,-3.84410,-126.25468
11.42700,-4.04900,-3.84368,-126.24873
11.44900,-4.04446,-3.84469,-126.23500
11.47100,-4.04376,-3.84588,-126.24604
11.48300,-4.04099,-3.84775,-126.25786
11.50500,-4.03987,-3.84527,-126.28041
11.51700,-4.04046,-3.84489,-126.27627
11.53900,-4.03528,-3.84529,-126.26250
11.55100,-4.03487,-3.84686,-126.26102
11.57300,-4.02715,-3.84168,-126.26422
11.59500,-4.02146,-3.84210,-126.26133
11.60700,-4.02198,-3.84096,-126.27212
11.62900,-4.01673,-3.84787,-126.27409
11.64100,-4.01449,-3.84864,-126.27175
11.66300,-4.01052,-3.84395,-126.26090
11.67500,-4.00574,-3.84509,-126.26453
11.69700,-4.00914,-3.84933,-126.27906
11.70900,-4.00467,-3.84808,-126.27779
11.73100,-4.00659,-3.85416,-126.27451
11.75300,-3.99994,-3.86154,-126.27419
11.76500,-3.99865,-3.85784,-126.27436
11.78700,-3.99941,-3.85530,-126.28214
11.79900,-3.99887,-3.85949,-126.29472
11.82100,-4.00210,-3.86270,-126.29441
11.83300,-3.99830,-3.85922,-126.28108
11.85500,-4.00524,-3.86796,-126.27429
11.87700,-4.00615,-3.85907,-126.29533
11.88900,-4.00059,-3.86326,-126.29111
11.91100,-4.00010,-3.86876,-126.29818
11.92300,-4.00136,-3.87186,-126.30371
11.94500,-4.00148,-3.87371,-126.29198
11.95700,-3.99951,-3.87009,-126.28537
11.97900,-4.00127,-3.87347,-126.29615
11.99128,-3.99922,-3.87404,-126.30445
12.01300,-4.00471,-3.86529,-126.29583
12.03500,-4.00444,-3.86484,-126.30991
12.04700,-3.99976,-3.86138,-126.30189
12.06900,-3.99960,-3.85220,-126.28973
12.08100,-3.99797,-3.85453,-126.29093
12.10300,-3.98989,-3.84947,-126.31200
12.11500,-3.98902,-3.85118,-126.30045
12.13700,-3.98166,-3.85555,-126.29396
12.15900,-3.98418,-3.85223,-126.29975
12.17100,-3.98221,-3.85679,-126.30385
12.19300,-3.97973,-3.85884,-126.31563
12.20500,-3.97796,-3.85827,-126.31564
12.22700,-3.97152,-3.85496,-126.31356
12.23900,-3.97043,-3.85312,-126.32449
12.26100,-3.96621,-3.85049,-126.33143
12.28300,-3.96414,-3.85069,-126.35477
12.29500,-3.96324,-3.85000,-126.35405
12.31700,-3.96520,-3.85132,-126.35766
12.32900,-3.96246,-3.85259,-126.35386
12.35100,-3.96397,-3.85642,-126.37893
12.36300,-3.96491,-3.85388,-126.39920
12.38500,-3.96248,-3.86175,-126.38349
12.39700,-3.96263,-3.85608,-126.38470
12.41900,-3.95854,-3.85456,-126.41325
12.44100,-3.95455,-3.85406,-126.42080
12.45300,-3.95166,-3.85518,-126.41489
12.47500,-3.94619,-3.85050,-126.41534
12.48700,-3.94511,-3.85276,-126.40179
12.50900,-3.93940,-3.86009,-126.39236
12.52100,-3.93911,-3.86185,-126.39367
12.54300,-3.94344,-3.85974,-126.41270
12.56500,-3.93778,-3.86086,-126.39213
12.57700,-3.93601,-3.86181,-126.39341
12.59900,-3.93290,-3.86114,-126.39005
12.61100,-3.93132,-3.86002,-126.38835
12.63300,-3.92371,-3.86165,-126.39069
12.64500,-3.91931,-3.86329,-126.39543
12.66700,-3.91551,-3.87325,-126.38534
12.69400,-3.91745,-3.86438,-126.41263
12.70600,-3.91676,-3.86499,-126.41557
12.71800,-3.91746,-3.86532,-126.41261
12.74000,-3.91812,-3.86912,-126.43248
12.75200,-3.91773,-3.86980,-126.43222
12.77400,-3.91909,-3.86833,-126.43029
12.78600,-3.91759,-3.87172,-126.43005
12.80800,-3.92140,-3.87325,-126.41995
12.83000,-3.91791,-3.86985,-126.40852
12.84200,-3.91703,-3.86995,-126.41506
12.86400,-3.91145,-3.87844,-126.42616
12.87600,-3.91543,-3.87809,-126.42218
12.89800,-3.91384,-3.86942,-126.44377
12.91000,-3.90970,-3.87230,-126.44334
12.93200,-3.90906,-3.86203,-126.41962
12.94400,-3.90781,-3.86714,-126.42973
12.96600,-3.90292,-3.87244,-126.42488
12.98800,-3.89983,-3.86137,-126.43387
13.00000,-3.89413,-3.86402,-126.44398
13.02200,-3.88726,-3.86276,-126.46817
13.03400,-3.88495,-3.85857,-126.45369
13.05600,-3.88101,-3.86001,-126.46758
13.06800,-3.88241,-3.85560,-126.47852
13.09000,-3.88237,-3.85274,-126.49178
13.11200,-3.87796,-3.84518,-126.49775
13.12400,-3.87523,-3.84581,-126.50443
13.14600,-3.87775,-3.84314,-126.47534
13.15800,-3.87290,-3.83999,-126.46741
13.18000,-3.87699,-3.83654,-126.47197
13.19200,-3.87345,-3.83761,-126.46848
13.21400,-3.86446,-3.84152,-126.49052
13.23600,-3.86648,-3.85238,-126.50290
13.24800,-3.86758,-3.84901,-126.50896
13.27000,-3.87075,-3.85126,-126.52744
13.28200,-3.87005,-3.85317,-126.53781
13.30400,-3.86966,-3.84788,-126.55281
13.31600,-3.86671,-3.84786,-126.54247
13.33800,-3.86131,-3.85596,-126.56247
13.35000,-3.85929,-3.85569,-126.56573
13.37200,-3.85298,-3.85711,-126.59456
13.39400,-3.85990,-3.86228,-126.58511
13.40600,-3.85833,-3.86189,-126.58804
13.42800,-3.85293,-3.85987,-126.57659
13.44000,-3.84989,-3.86430,-126.58103
13.46200,-3.85659,-3.86427,-126.59337
13.47400,-3.85369,-3.86243,-126.59510
13.49600,-3.85359,-3.86563,-126.58642
13.51800,-3.85622,-3.86016,-126.59776
13.53000,-3.85614,-3.85794,-126.60308
13.55200,-3.85525,-3.86092,-126.61761
13.56400,-3.85535,-3.86207,-126.62389
13.58600,-3.85050,-3.85892,-126.62979
13.59800,-3.85108,-3.86206,-126.64079
13.62000,-3.84315,-3.86639,-126.63097
13.64200,-3.83945,-3.86560,-126.63174
13.65400,-3.83757,-3.86707,-126.62653
13.67600,-3.83099,-3.86674,-126.61345
13.68800,-3.83003,-3.86434,-126.61610
13.71000,-3.82943,-3.86058,-126.61532
13.72200,-3.82716,-3.85968,-126.60997
13.74400,-3.81990,-3.86267,-126.62924
13.75600,-3.81870,-3.85965,-126.63010
13.77800,-3.81277,-3.85962,-126.61651
13.80000,-3.81049,-3.85787,-126.60740
13.81200,-3.80866,-3.85770,-126.60199
13.83400,-3.81202,-3.85043,-126.57657
13.84600,-3.81008,-3.84984,-126.56580
13.86800,-3.81220,-3.84828,-126.58494
13.88000,-3.81031,-3.84456,-126.59016
13.90200,-3.80642,-3.84604,-126.61115
13.92400,-3.80549,-3.84770,-126.61736
13.93600,-3.80603,-3.84778,-126.61694
13.95800,-3.80045,-3.85220,-126.60664
13.97000,-3.79910,-3.84791,-126.60728
13.99200,-3.79766,-3.85154,-126.60975
14.00400,-3.79985,-3.84938,-126.60052
14.02600,-3.79981,-3.84357,-126.61182
14.03800,-3.79549,-3.84110,-126.60538
14.06000,-3.79065,-3.84156,-126.61212
14.08200,-3.79018,-3.84304,-126.61311
14.09400,-3.79057,-3.84241,-126.61953
14.11600,-3.78923,-3.84799,-126.61531
14.12800,-3.79156,-3.84490,-126.62164
14.15000,-3.79053,-3.83909,-126.63248
14.16200,-3.79427,-3.84043,-126.62823
14.18400,-3.79250,-3.83990,-126.64011
14.20600,-3.79052,-3.83722,-126.65366
14.21800,-3.78782,-3.83621,-126.65643
14.24000,-3.78995,-3.83435,-126.65775
14.25200,-3.79066,-3.83349,-126.66167
14.27400,-3.79391,-3.83724,-126.66095
14.28600,-3.79104,-3.83768,-126.65793
14.30800,-3.79252,-3.83816,-126.67593
14.33000,-3.78505,-3.84244,-126.67156
14.34200,-3.78409,-3.84088,-126.68007
14.36400,-3.78312,-3.84230,-126.67763
14.37600,-3.78505,-3.84282,-126.67435
14.39800,-3.78248,-3.84395,-126.68055
14.41000,-3.77899,-3.83925,-126.68717
14.43200,-3.77892,-3.83057,-126.67350
14.44400,-3.78035,-3.82865,-126.68169
14.46600,-3.78475,-3.83587,-126.69700
14.48800,-3.78159,-3.83466,-126.71653
14.50000,-3.77789,-3.83329,-126.71824
14.52200,-3.77558,-3.84364,-126.73284
14.53400,-3.77412,-3.84044,-126.73160
14.55600,-3.77433,-3.83819,-126.71492
14.56800,-3.77411,-3.83953,-126.71590
14.59000,-3.77601,-3.83649,-126.72377
14.61200,-3.77248,-3.83294,-126.72369
14.62400,-3.76711,-3.83301,-126.72273
14.64600,-3.76474,-3.83510,-126.74792
14.65800,-3.76213,-3.83259,-126.74620
14.68000,-3.76378,-3.83988,-126.73699
14.69700,-3.76047,-3.84630,-126.73624
14.70900,-3.75836,-3.84219,-126.74435
14.73100,-3.75541,-3.84323,-126.75465
14.75300,-3.75087,-3.84209,-126.75612
14.76500,-3.75054,-3.84225,-126.74321
14.78700,-3.74659,-3.84417,-126.76274
14.79900,-3.74820,-3.84595,-126.76903
14.82100,-3.75084,-3.83564,-126.79136
14.83300,-3.74793,-3.83445,-126.79777
14.85500,-3.75302,-3.83792,-126.80682
14.87700,-3.74892,-3.83213,-126.83808
14.88900,-3.74665,-3.82923,-126.84116
14.91100,-3.75170,-3.82296,-126.84232
14.92300,-3.75061,-3.82051,-126.83817
14.94500,-3.75193,-3.81601,-126.81681
14.95700,-3.75334,-3.81891,-126.81944
14.97900,-3.75333,-3.81379,-126.81710
14.99100,-3.75529,-3.81358,-126.82837
15.01300,-3.75343,-3.81804,-126.82519
15.03500,-3.75352,-3.82430,-126.86046
15.04700,-3.75317,-3.82260,-126.87893
15.06900,-3.74305,-3.82669,-126.87778
15.08100,-3.74709,-3.82572,-126.87653
15.10300,-3.74295,-3.82446,-126.89214
15.11500,-3.74174,-3.82289,-126.89637
15.13700,-3.74477,-3.81856,-126.89777
15.15900,-3.74196,-3.81196,-126.89917
15.17100,-3.74259,-3.81490,-126.90546
15.19300,-3.74557,-3.80915,-126.88662
15.20500,-3.74411,-3.80552,-126.88213
15.22700,-3.74571,-3.80906,-126.88070
15.23900,-3.74615,-3.80900,-126.88925
15.26100,-3.74005,-3.80935,-126.88220
15.28300,-3.73951,-3.81057,-126.87997
15.29500,-3.73652,-3.81408,-126.87945
15.31700,-3.74324,-3.82152,-126.88297
15.32900,-3.74454,-3.81766,-126.88773
15.35100,-3.74604,-3.81325,-126.89509
15.36300,-3.74568,-3.81534,-126.87541
15.38500,-3.74337,-3.80830,-126.87544
15.39700,-3.74049,-3.80680,-126.87577
15.41900,-3.73436,-3.81314,-126.87949
15.44100,-3.73395,-3.81460,-126.87548
15.45300,-3.73302,-3.81358,-126.86829
15.47500,-3.72975,-3.81899,-126.86920
15.48700,-3.72721,-3.82057,-126.87544
15.50900,-3.72115,-3.81426,-126.86430
15.52100,-3.72383,-3.81498,-126.86628
15.54300,-3.72666,-3.81483,-126.87195
15.56500,-3.72715,-3.81458,-126.86334
15.57700,-3.72739,-3.81400,-126.85703
15.59900,-3.72607,-3.81235,-126.87373
15.61100,-3.72404,-3.80849,-126.87197
15.63300,-3.72247,-3.81400,-126.86867
15.64500,-3.72425,-3.81574,-126.86666
15.66700,-3.71697,-3.81065,-126.85135
15.67900,-3.71558,-3.81227,-126.86667
15.70100,-3.71673,-3.80615,-126.85144
15.72300,-3.71052,-3.81778,-126.85023
15.73500,-3.71002,-3.81840,-126.83997
15.75700,-3.70944,-3.81384,-126.82655
15.76900,-3.70577,-3.81675,-126.82462
15.79100,-3.70113,-3.82159,-126.84059
15.80300,-3.70117,-3.81701,-126.85332
15.82500,-3.70125,-3.82440,-126.85588
15.84700,-3.69590,-3.81421,-126.86131
15.85900,-3.69732,-3.81275,-126.86504
15.88100,-3.70017,-3.81314,-126.86755
15.89300,-3.70142,-3.81241,-126.87099
15.91500,-3.69765,-3.81022,-126.85551
15.92700,-3.69565,-3.81327,-126.84759
15.94900,-3.69710,-3.80722,-126.82005
15.97100,-3.70169,-3.79957,-126.82513
15.98300,-3.70157,-3.79986,-126.82194
16.00500,-3.70293,-3.79741,-126.83836
16.01700,-3.70226,-3.79669,-126.83494
16.03900,-3.69705,-3.80298,-126.84483
16.05100,-3.69780,-3.80174,-126.84164
16.07300,-3.69817,-3.79709,-126.84286
16.08500,-3.69651,-3.79867,-126.84235
16.10700,-3.69565,-3.79333,-126.82654
16.12900,-3.69002,-3.78937,-126.83539
16.14100,-3.69033,-3.79065,-126.83964
16.16300,-3.68871,-3.78084,-126.85070
16.17500,-3.68893,-3.78270,-126.85192
16.19700,-3.68705,-3.78067,-126.84330
16.20900,-3.68931,-3.78252,-126.85319
16.23100,-3.68637,-3.78673,-126.84815
16.25300,-3.68637,-3.78839,-126.86362
16.26500,-3.68745,-3.78835,-126.88474
16.28700,-3.68562,-3.79345,-126.88242
16.29900,-3.68467,-3.79120,-126.88343
16.32100,-3.68269,-3.79690,-126.87710
16.33300,-3.68033,-3.79922,-126.88609
16.35500,-3.68318,-3.79477,-126.88424
16.37700,-3.68106,-3.80499,-126.88180
16.38900,-3.68135,-3.80804,-126.87930
16.41100,-3.67854,-3.80416,-126.89361
16.42300,-3.67374,-3.80738,-126.89458
16.44500,-3.67141,-3.80634,-126.90157
16.45700,-3.67324,-3.80581,-126.91042
16.47900,-3.67483,-3.81129,-126.89521
16.49100,-3.67463,-3.81571,-126.90054
16.51300,-3.67956,-3.81567,-126.91241
16.53500,-3.67538,-3.81999,-126.91010
16.54700,-3.67643,-3.81697,-126.91410
16.56900,-3.68188,-3.81429,-126.90717
16.58100,-3.68300,-3.81907,-126.89876
16.60300,-3.67728,-3.81355,-126.89104
16.61500,-3.67493,-3.81468,-126.89485
16.63700,-3.66726,-3.81153,-126.88152
16.65900,-3.66815,-3.81609,-126.87708
16.67100,-3.66501,-3.81795,-126.87537
16.69800,-3.67295,-3.81371,-126.88096
16.71000,-3.67414,-3.81535,-126.88792
16.72200,-3.67269,-3.81468,-126.87920
16.74400,-3.67560,-3.81087,-126.87919
16.75600,-3.67195,-3.81064,-126.86704
16.77800,-3.67424,-3.81252,-126.87073
16.80000,-3.67587,-3.82643,-126.86203
16.81200,-3.67513,-3.82744,-126.86632
16.83400,-3.67010,-3.82565,-126.87125
16.84600,-3.67049,-3.82594,-126.86607
16.86800,-3.66653,-3.82799,-126.87052
16.88000,-3.66653,-3.82659,-126.87206
16.90200,-3.67171,-3.82131,-126.86490
16.92400,-3.66773,-3.82601,-126.86995
16.93600,-3.66564,-3.82300,-126.87178
16.95800,-3.66621,-3.82550,-126.88094
16.97000,-3.66747,-3.82888,-126.88451
16.99200,-3.67058,-3.81821,-126.87306
17.00400,-3.67081,-3.82326,-126.87014
17.02600,-3.67147,-3.82915,-126.88484
17.03800,-3.67230,-3.82357,-126.87978
17.06000,-3.66559,-3.82713,-126.86212
17.08200,-3.65867,-3.82674,-126.84596
17.09400,-3.65716,-3.82413,-126.84857
17.11600,-3.65765,-3.83150,-126.86801
17.12800,-3.66312,-3.82974,-126.86433
17.15000,-3.66877,-3.82902,-126.87341
17.16200,-3.66949,-3.83211,-126.87473
17.18400,-3.67129,-3.83090,-126.87435
17.20600,-3.66906,-3.83404,-126.89214
17.21800,-3.66365,-3.83348,-126.90051
17.24000,-3.66567,-3.82955,-126.88585
17.25200,-3.66410,-3.83233,-126.88062
17.27400,-3.66681,-3.82758,-126.88541
17.28600,-3.66249,-3.82820,-126.89574
17.30800,-3.66109,-3.82828,-126.89803
17.32028,-3.66381,-3.82743,-126.89626
17.34200,-3.65724,-3.82341,-126.88633
17.36400,-3.65280,-3.83051,-126.86751
17.37600,-3.65190,-3.82715,-126.86858
17.39800,-3.65147,-3.82336,-126.87325
17.41000,-3.64723,-3.82206,-126.87936
17.43200,-3.64771,-3.82262,-126.89021
17.44400,-3.64237,-3.82097,-126.90076
17.46600,-3.64237,-3.81644,-126.91577
17.48800,-3.64189,-3.81713,-126.91521
17.50000,-3.64046,-3.81818,-126.91742
17.52200,-3.63850,-3.81305,-126.92461
17.53400,-3.63831,-3.80979,-126.92182
17.55600,-3.63665,-3.81239,-126.90150
17.56800,-3.63778,-3.80931,-126.89478
17.59000,-3.63551,-3.80499,-126.90660
17.61200,-3.62916,-3.81986,-126.91930
17.62400,-3.63002,-3.81899,-126.90862
17.64600,-3.63142,-3.81574,-126.90723
17.65800,-3.62875,-3.81754,-126.90447
17.68000,-3.62650,-3.81677,-126.89540
17.69200,-3.62523,-3.81708,-126.88809
17.71400,-3.62618,-3.81396,-126.86875
17.72600,-3.62438,-3.81510,-126.87234
17.74800,-3.62527,-3.81676,-126.88486
17.77000,-3.62603,-3.81785,-126.91582
17.78200,-3.62902,-3.81798,-126.91946
17.80400,-3.62314,-3.82298,-126.94376
17.81600,-3.62192,-3.82137,-126.95287
17.83800,-3.61772,-3.83040,-126.94543
17.85000,-3.61732,-3.82845,-126.93513
17.87200,-3.61647,-3.82512,-126.91268
17.89400,-3.61498,-3.83666,-126.92210
17.90600,-3.61509,-3.83706,-126.92368
17.92800,-3.61730,-3.82917,-126.95457
17.94000,-3.61788,-3.82935,-126.94839
17.96200,-3.61908,-3.83475,-126.95937
17.97400,-3.62187,-3.83565,-126.95445
17.99600,-3.62047,-3.83575,-126.94925
18.01800,-3.62157,-3.83012,-126.95039
18.03000,-3.61979,-3.83280,-126.94714
18.05200,-3.62635,-3.82782,-126.95469
18.06400,-3.62767,-3.82819,-126.95146
18.08600,-3.62200,-3.83113,-126.91640
18.09800,-3.62167,-3.82932,-126.91596
18.12000,-3.62441,-3.82950,-126.88569
18.13200,-3.62367,-3.83321,-126.88058
18.15400,-3.62116,-3.82924,-126.89829
18.17600,-3.62017,-3.81864,-126.89725
18.18800,-3.61968,-3.81537,-126.89198
18.21000,-3.61496,-3.81643,-126.90418
18.22200,-3.61601,-3.81276,-126.90813
18.24400,-3.61491,-3.81509,-126.91171
18.25600,-3.61634,-3.81777,-126.91679
18.27800,-3.61305,-3.81810,-126.92183
18.30000,-3.61327,-3.81034,-126.93857
18.31200,-3.61288,-3.81533,-126.93522
18.33400,-3.61414,-3.80999,-126.93271
18.34600,-3.60998,-3.80951,-126.93007
18.36800,-3.59600,-3.81999,-126.94149
18.38000,-3.59589,-3.81773,-126.93362
18.40200,-3.58800,-3.82077,-126.92831
18.42400,-3.58326,-3.82692,-126.91685
18.43600,-3.58619,-3.82537,-126.92165
18.45800,-3.59318,-3.82683,-126.91966
18.47000,-3.59215,-3.82586,-126.92100
18.49200,-3.58192,-3.81961,-126.93050
18.50400,-3.58163,-3.81912,-126.93593
18.52600,-3.58385,-3.82455,-126.94858
18.53800,-3.58282,-3.82084,-126.95150
18.56000,-3.58520,-3.81735,-126.93541
18.58200,-3.58923,-3.82014,-126.93970
18.59400,-3.58637,-3.81961,-126.94627
18.61600,-3.58561,-3.82059,-126.98384
18.62800,-3.58463,-3.82351,-126.98090
18.65000,-3.57585,-3.81363,-126.99007
18.66200,-3.57251,-3.81486,-126.97989
18.68400,-3.57041,-3.81804,-126.99200
18.70100,-3.57602,-3.81270,-126.97704
18.72300,-3.56715,-3.81066,-126.97932
18.73500,-3.56588,-3.81057,-126.97804
18.75700,-3.57035,-3.80765,-126.95544
18.76900,-3.56681,-3.80750,-126.96519
18.79100,-3.56497,-3.80271,-126.94889
18.80300,-3.56066,-3.80611,-126.95960
18.82500,-3.55135,-3.80861,-126.96120
18.84700,-3.55200,-3.80584,-126.98400
18.85900,-3.55350,-3.80989,-126.97079
18.88100,-3.55103,-3.81016,-126.97087
18.89300,-3.54774,-3.81339,-126.97218
18.91500,-3.54623,-3.81940,-126.98199
18.92700,-3.54774,-3.81897,-126.98955
18.94900,-3.55494,-3.81701,-126.99848
18.97100,-3.55090,-3.82017,-127.02107
18.98300,-3.55216,-3.81915,-127.02380
19.00500,-3.55358,-3.82333,-127.04317
19.01700,-3.54872,-3.82124,-127.04468
19.03900,-3.54860,-3.82101,-127.03732
19.05100,-3.54670,-3.82442,-127.02522
19.07300,-3.54759,-3.82351,-127.02357
19.08500,-3.54381,-3.82445,-127.02349
19.10700,-3.54210,-3.82415,-127.02367
19.12900,-3.54198,-3.83020,-127.01421
19.14100,-3.53961,-3.82826,-127.01647
19.16300,-3.54153,-3.82420,-127.03316
19.17500,-3.54001,-3.82512,-127.02729
19.19700,-3.53833,-3.82419,-127.04077
19.20900,-3.53630,-3.82320,-127.03136
19.23100,-3.53231,-3.82114,-127.01628
19.25300,-3.53651,-3.81751,-127.01240
19.26500,-3.53620,-3.81741,-127.00459
19.28700,-3.53235,-3.81885,-127.01773
19.29900,-3.53230,-3.81496,-127.01474
19.32100,-3.53516,-3.81585,-127.01664
19.33300,-3.53785,-3.81392,-127.01234
19.35500,-3.52995,-3.80787,-127.02048
19.36700,-3.53280,-3.80719,-127.02763
19.38900,-3.53072,-3.80718,-127.02361
19.41100,-3.52418,-3.80933,-127.04338
19.42300,-3.52256,-3.80056,-127.04098
19.44500,-3.52012,-3.80580,-127.04424
19.45700,-3.51734,-3.80249,-127.05222
19.47900,-3.51412,-3.79179,-127.04129
19.49100,-3.51144,-3.79743,-127.04352
19.51300,-3.51278,-3.78868,-127.03374
19.53500,-3.51125,-3.78485,-127.03990
19.54700,-3.50773,-3.78230,-127.05350
19.56900,-3.50721,-3.78131,-127.04445
19.58100,-3.50951,-3.78123,-127.05775
19.60300,-3.50751,-3.79136,-127.05266
19.61500,-3.50688,-3.78906,-127.05688
19.63700,-3.50104,-3.79135,-127.06118
19.65900,-3.50594,-3.79028,-127.06793
19.67100,-3.50748,-3.78626,-127.07284
19.69300,-3.50692,-3.79194,-127.08544
19.70500,-3.50892,-3.79346,-127.10226
19.72700,-3.49614,-3.79467,-127.09480
19.73900,-3.49546,-3.79730,-127.08624
19.76100,-3.48772,-3.79236,-127.07961
19.77300,-3.48718,-3.78960,-127.09308
19.79500,-3.48134,-3.79884,-127.10644
19.81700,-3.48177,-3.80633,-127.10181
19.82900,-3.48435,-3.80389,-127.09173
19.85100,-3.48251,-3.79905,-127.09824
19.86300,-3.47831,-3.79908,-127.09391
19.88500,-3.47583,-3.80232,-127.10502
19.89700,-3.47501,-3.80163,-127.10740
19.91900,-3.48041,-3.80398,-127.12824
19.94100,-3.47830,-3.80205,-127.16548
19.95300,-3.47706,-3.80194,-127.16015
19.97500,-3.47794,-3.80335,-127.16676
19.98700,-3.47897,-3.80580,-127.17359
20.00900,-3.47804,-3.80527,-127.18793
20.02100,-3.47488,-3.80135,-127.19267
20.04300,-3.47582,-3.81250,-127.21323
20.06500,-3.48172,-3.80126,-127.19429
20.07700,-3.48351,-3.80091,-127.20302
20.09900,-3.47694,-3.80447,-127.20155
20.11100,-3.47649,-3.79784,-127.21297
20.13300,-3.47673,-3.79269,-127.22085
20.14500,-3.47643,-3.79178,-127.21949
20.16700,-3.47679,-3.78395,-127.25060
20.17900,-3.47492,-3.78486,-127.25168
20.20100,-3.47784,-3.78783,-127.25616
20.22300,-3.47909,-3.78172,-127.26003
20.23500,-3.47969,-3.78036,-127.26263
20.25700,-3.48707,-3.78126,-127.27135
20.26900,-3.48694,-3.78033,-127.26588
20.29100,-3.48948,-3.78609,-127.26262
20.30300,-3.49076,-3.78957,-127.27863
20.32500,-3.49411,-3.79265,-127.28490
20.34700,-3.49361,-3.80031,-127.28285
20.35900,-3.49149,-3.80216,-127.27728
20.38100,-3.48693,-3.80968,-127.26050
20.39300,-3.48705,-3.81474,-127.26912
20.41500,-3.48385,-3.81148,-127.26440
20.42700,-3.48198,-3.81838,-127.27911
20.44900,-3.48164,-3.82054,-127.27744
20.46100,-3.48161,-3.81988,-127.28823
20.48300,-3.48560,-3.81619,-127.31315
20.50500,-3.48282,-3.81358,-127.31763
20.51700,-3.48547,-3.81482,-127.30757
20.53900,-3.49060,-3.81351,-127.31820
20.55100,-3.49519,-3.81215,-127.31555
20.57300,-3.48738,-3.81787,-127.30492
20.58500,-3.48624,-3.81619,-127.30807
20.60700,-3.48991,-3.81827,-127.29677
20.62900,-3.48182,-3.82538,-127.29037
20.64100,-3.47911,-3.81908,-127.29099
20.66300,-3.48350,-3.82569,-127.28892
20.67500,-3.48357,-3.83313,-127.29388
20.70200,-3.47843,-3.83359,-127.26762
20.71400,-3.47995,-3.83359,-127.27218
20.72600,-3.48009,-3.83551,-127.27912
20.74800,-3.47962,-3.83041,-127.26299
20.77000,-3.47174,-3.83497,-127.24857
20.78200,-3.47155,-3.83370,-127.24550
20.80400,-3.47620,-3.83240,-127.24033
20.81600,-3.47427,-3.82878,-127.22749
20.83800,-3.47499,-3.83031,-127.23108
20.85000,-3.47100,-3.82980,-127.23537
20.87200,-3.46820,-3.82667,-127.23490
20.89400,-3.46803,-3.82383,-127.22135
20.90600,-3.46821,-3.82391,-127.23483
20.92800,-3.46234,-3.82315,-127.24758
20.94000,-3.46294,-3.82036,-127.24624
20.96200,-3.46104,-3.82429,-127.26812
20.97400,-3.45944,-3.81915,-127.26875
20.99600,-3.45875,-3.80743,-127.25230
21.00828,-3.45913,-3.80719,-127.26108
21.03100,-3.46297,-3.80964,-127.25790
21.05300,-3.46278,-3.81319,-127.24273
21.06500,-3.46166,-3.81863,-127.25308
21.08700,-3.46352,-3.80553,-127.25153
21.09900,-3.46315,-3.80401,-127.24133
21.12100,-3.46341,-3.80693,-127.23318
21.13300,-3.46347,-3.80509,-127.23936
21.15500,-3.46064,-3.81490,-127.23754
21.16700,-3.45778,-3.81727,-127.23255
21.18900,-3.45177,-3.80972,-127.25420
21.21100,-3.46118,-3.81209,-127.24686
21.22300,-3.46362,-3.80902,-127.22601
21.24500,-3.46331,-3.81208,-127.23288
21.25700,-3.46100,-3.81135,-127.23068
21.27900,-3.46357,-3.80327,-127.23561
21.29100,-3.46359,-3.80254,-127.24959
21.31300,-3.45612,-3.80683,-127.24814
21.33500,-3.45820,-3.79958,-127.26543
21.34700,-3.45622,-3.80029,-127.25182
21.36900,-3.45165,-3.80499,-127.26492
21.38100,-3.44820,-3.80349,-127.26302
21.40300,-3.44599,-3.80520,-127.25789
21.41500,-3.43975,-3.80736,-127.25974
21.43700,-3.44196,-3.80549,-127.26442
21.45900,-3.44259,-3.80450,-127.28938
21.47100,-3.43982,-3.80459,-127.28747
21.49300,-3.43871,-3.79998,-127.29532
21.50500,-3.44042,-3.80278,-127.29025
21.52700,-3.43786,-3.79563,-127.28292
21.53900,-3.43817,-3.79246,-127.27792
21.56100,-3.43545,-3.79760,-127.27423
21.57300,-3.43471,-3.79238,-127.27370
21.59500,-3.43633,-3.79601,-127.25688
21.61700,-3.43705,-3.79986,-127.25549
21.62900,-3.43667,-3.80025,-127.26376
21.65100,-3.43070,-3.81096,-127.25285
21.66300,-3.43193,-3.81092,-127.23769
21.68500,-3.43451,-3.80455,-127.23991
21.69700,-3.43251,-3.80918,-127.23575
21.71900,-3.43029,-3.81044,-127.24724
21.74100,-3.42710,-3.80501,-127.24240
21.75300,-3.42669,-3.80657,-127.25619
21.77500,-3.42387,-3.81075,-127.27518
21.78700,-3.42465,-3.80659,-127.27418
21.80900,-3.42062,-3.81367,-127.28677
21.82100,-3.42143,-3.81248,-127.29141
21.84300,-3.41790,-3.80911,-127.27976
21.85528,-3.41388,-3.80834,-127.28323
21.87700,-3.41401,-3.81378,-127.27814
21.89900,-3.40966,-3.81551,-127.25700
21.91100,-3.40998,-3.81404,-127.25337
21.93300,-3.40461,-3.81112,-127.26124
21.94500,-3.40694,-3.81285,-127.26360
21.96700,-3.40485,-3.80648,-127.25549
21.97900,-3.40486,-3.80351,-127.24879
22.00100,-3.40586,-3.80761,-127.25365
22.02300,-3.40291,-3.79528,-127.23919
22.03500,-3.40342,-3.79688,-127.24859
22.05700,-3.40362,-3.80280,-127.25054
22.06900,-3.40306,-3.80037,-127.24869
22.09100,-3.39563,-3.80209,-127.26146
22.10300,-3.39134,-3.80408,-127.26454
22.12500,-3.38315,-3.81091,-127.26067
22.14700,-3.38663,-3.80978,-127.24804
22.15900,-3.38377,-3.80806,-127.24745
22.18100,-3.37839,-3.81280,-127.22619
22.19300,-3.37597,-3.81329,-127.22789
22.21500,-3.37331,-3.80328,-127.22120
22.22700,-3.37046,-3.80546,-127.22395
22.24900,-3.37022,-3.80703,-127.22835
22.26100,-3.37313,-3.80047,-127.23691
22.28300,-3.37173,-3.79541,-127.24706
22.30500,-3.37032,-3.79283,-127.26053
22.31700,-3.36837,-3.78694,-127.27506
22.33900,-3.37552,-3.78828,-127.26566
22.35100,-3.37442,-3.78700,-127.27296
22.37300,-3.37866,-3.78419,-127.29404
22.38500,-3.37981,-3.78312,-127.29969
22.40700,-3.37837,-3.78424,-127.29591
22.42900,-3.38443,-3.78819,-127.27912
22.44100,-3.38558,-3.78980,-127.27848
22.46300,-3.38431,-3.78405,-127.27647
22.47500,-3.38146,-3.78790,-127.28033
22.49700,-3.38174,-3.79031,-127.28442
22.50900,-3.38198,-3.78470,-127.28553
22.53100,-3.38041,-3.80276,-127.29036
22.55300,-3.38213,-3.80107,-127.27539
22.56500,-3.38004,-3.79932,-127.27805
22.58700,-3.37455,-3.80633,-127.27259
22.59900,-3.37731,-3.80287,-127.26903
22.62100,-3.37863,-3.80018,-127.25408
22.63300,-3.37525,-3.80433,-127.26082
22.65500,-3.37163,-3.79005,-127.27206
22.66700,-3.37204,-3.79089,-127.27940
22.68900,-3.37436,-3.79309,-127.29591
22.70600,-3.37600,-3.78249,-127.28493
22.72800,-3.37608,-3.77736,-127.28310
22.74000,-3.37400,-3.77373,-127.28330
22.76200,-3.37599,-3.76772,-127.30047
22.77400,-3.37516,-3.76983,-127.30105
22.79600,-3.37778,-3.76677,-127.31826
22.80800,-3.38217,-3.76617,-127.32626
22.83000,-3.38018,-3.76454,-127.31370
22.85200,-3.38481,-3.76390,-127.32281
22.86400,-3.38397,-3.76286,-127.32335
22.88600,-3.37509,-3.76728,-127.34193
22.89800,-3.37556,-3.76340,-127.33776
22.92000,-3.37233,-3.76096,-127.37482
22.93200,-3.36786,-3.76446,-127.36907
22.95400,-3.37317,-3.76082,-127.36118
22.97600,-3.36867,-3.75987,-127.35538
22.98800,-3.36981,-3.75945,-127.35308
23.01000,-3.36624,-3.75823,-127.35663
23.02200,-3.36705,-3.76546,-127.35629
23.04400,-3.37323,-3.76563,-127.36723
23.05600,-3.37291,-3.76497,-127.37496
23.07800,-3.37693,-3.76719,-127.38149
23.10000,-3.37659,-3.76747,-127.37968
23.11200,-3.37490,-3.76514,-127.38680
23.13400,-3.38082,-3.77165,-127.40085
23.14600,-3.38062,-3.76900,-127.39075
23.16800,-3.38790,-3.77632,-127.38680
23.18000,-3.38727,-3.77458,-127.39846
23.20200,-3.38455,-3.77142,-127.37298
23.21400,-3.38614,-3.77190,-127.37287
23.23600,-3.38581,-3.76742,-127.36995
23.25800,-3.38866,-3.77330,-127.37608
23.27000,-3.38556,-3.77801,-127.37805
23.29200,-3.38445,-3.77974,-127.37994
23.30400,-3.38728,-3.78307,-127.39064
23.32600,-3.38752,-3.77433,-127.41127
23.33800,-3.38652,-3.77393,-127.40686
23.36000,-3.40322,-3.77181,-127.41272
23.38200,-3.40416,-3.77151,-127.39790
23.39400,-3.40524,-3.77124,-127.38936
23.41600,-3.40739,-3.76876,-127.39960
23.42800,-3.40746,-3.76802,-127.40384
23.45000,-3.40381,-3.76755,-127.42072
23.46200,-3.40396,-3.76962,-127.43080
23.48400,-3.40393,-3.77110,-127.43214
23.49628,-3.40128,-3.76355,-127.44600
23.51800,-3.39878,-3.76542,-127.43615
23.54000,-3.39939,-3.76523,-127.44775
23.55200,-3.39874,-3.76511,-127.44847
23.57400,-3.39438,-3.76671,-127.45083
23.58600,-3.39747,-3.76236,-127.45837
23.60800,-3.39831,-3.76410,-127.46363
23.62000,-3.39752,-3.76595,-127.45843
23.64200,-3.38978,-3.76213,-127.46194
23.66400,-3.38415,-3.76265,-127.44706
23.67600,-3.38633,-3.76012,-127.45042
23.69800,-3.38357,-3.76341,-127.46922
23.71000,-3.37907,-3.76300,-127.45300
23.73200,-3.38263,-3.75931,-127.43985
23.74400,-3.38560,-3.76035,-127.45046
23.76600,-3.38231,-3.76573,-127.44856
23.78800,-3.38409,-3.77006,-127.44238
23.80000,-3.38089,-3.77104,-127.44859
23.82200,-3.38055,-3.77076,-127.45694
23.83400,-3.38339,-3.76659,-127.45395
23.85600,-3.38207,-3.76455,-127.41932
23.86800,-3.38659,-3.76845,-127.41380
23.89000,-3.38127,-3.76944,-127.41899
23.90200,-3.38322,-3.77227,-127.42004
23.92400,-3.38711,-3.77016,-127.40668
23.94600,-3.38797,-3.77146,-127.37824
23.95800,-3.38397,-3.77259,-127.38934
23.98000,-3.38532,-3.77572,-127.37495
23.99200,-3.38312,-3.77530,-127.37641
24.01400,-3.37521,-3.77426,-127.38074
24.02600,-3.37622,-3.77299,-127.37375
24.04800,-3.38155,-3.77585,-127.39056
24.07000,-3.38324,-3.77207,-127.39955
24.08200,-3.38279,-3.77056,-127.38981
24.10400,-3.38447,-3.77363,-127.39578
24.11600,-3.38478,-3.76892,-127.38586
24.13800,-3.38573,-3.77198,-127.40023
24.15000,-3.38663,-3.77451,-127.40373
24.17200,-3.38975,-3.76627,-127.39969
24.19400,-3.38576,-3.77004,-127.40747
24.20600,-3.38446,-3.76584,-127.40183
24.22800,-3.38676,-3.75766,-127.40563
24.24000,-3.38433,-3.76082,-127.40166
24.26200,-3.39703,-3.76704,-127.40318
24.27400,-3.39816,-3.76894,-127.40078
24.29600,-3.40068,-3.77425,-127.40164
24.30800,-3.39558,-3.77287,-127.39910
24.33000,-3.39578,-3.77565,-127.40220
24.35200,-3.39469,-3.78004,-127.40697
24.36400,-3.39358,-3.78188,-127.40868
24.38600,-3.39530,-3.78281,-127.38322
24.39800,-3.39442,-3.78261,-127.39421
24.42000,-3.39563,-3.78481,-127.39859
24.43200,-3.39877,-3.78490,-127.40359
24.45400,-3.39694,-3.78558,-127.38503
24.47600,-3.39695,-3.78371,-127.38473
24.48800,-3.39708,-3.78102,-127.39100
24.51000,-3.40064,-3.77063,-127.36523
24.52200,-3.39857,-3.77785,-127.37199
24.54400,-3.39771,-3.77517,-127.36131
24.55600,-3.39653,-3.77318,-127.36233
24.57800,-3.39699,-3.78198,-127.34502
24.60000,-3.40067,-3.77769,-127.33854
24.61200,-3.40253,-3.77957,-127.33686
24.63400,-3.39941,-3.78477,-127.32640
24.64600,-3.39410,-3.78258,-127.34704
24.66800,-3.40143,-3.78839,-127.33259
24.68000,-3.39845,-3.78702,-127.33111
24.70700,-3.39259,-3.79180,-127.32491
24.71900,-3.38948,-3.78861,-127.31367
24.74100,-3.39456,-3.79376,-127.30596
24.75300,-3.39399,-3.79601,-127.31007
24.77500,-3.39750,-3.79641,-127.32661
24.78700,-3.39871,-3.80095,-127.34304
24.80900,-3.40576,-3.79759,-127.33190
24.82100,-3.40528,-3.79823,-127.32813
24.84300,-3.40213,-3.79497,-127.33126
24.85500,-3.40326,-3.79252,-127.33625
24.87700,-3.40476,-3.79024,-127.33360
24.89900,-3.39964,-3.79210,-127.33289
24.91100,-3.40237,-3.79454,-127.34095
24.93300,-3.40326,-3.79890,-127.33940
24.94500,-3.39804,-3.80026,-127.34208
24.96700,-3.39490,-3.80315,-127.34749
24.97900,-3.39556,-3.80458,-127.34315
25.00100,-3.40097,-3.80686,-127.32853
25.02300,-3.39995,-3.80382,-127.36366
25.03500,-3.40125,-3.80313,-127.37884
25.05700,-3.39810,-3.80705,-127.36073
25.06900,-3.39827,-3.80427,-127.35922
25.09100,-3.39194,-3.80433,-127.36211
25.10300,-3.38815,-3.80591,-127.36356
25.12500,-3.39095,-3.81220,-127.36996
25.14700,-3.39125,-3.81397,-127.37650
25.15900,-3.39090,-3.81694,-127.37883
25.18100,-3.38994,-3.82186,-127.39739
25.19300,-3.39032,-3.82305,-127.39786
25.21500,-3.38757,-3.82380,-127.40557
25.22700,-3.38684,-3.81985,-127.41552
25.24900,-3.39582,-3.81848,-127.42895
25.26100,-3.39614,-3.82061,-127.44111
25.28300,-3.38703,-3.81985,-127.43719
25.30500,-3.39074,-3.81788,-127.45008
25.31700,-3.38988,-3.82415,-127.45537
25.33900,-3.38936,-3.82395,-127.46836
25.35100,-3.39021,-3.82065,-127.46491
25.37300,-3.39124,-3.82724,-127.45448
25.38500,-3.39275,-3.82373,-127.46304
25.40700,-3.39477,-3.82920,-127.47441
25.42900,-3.39917,-3.83072,-127.44836
25.44100,-3.39774,-3.83052,-127.43961
25.46300,-3.39214,-3.82048,-127.45466
25.47500,-3.39116,-3.82053,-127.44863
25.49700,-3.39066,-3.82066,-127.44789
25.50900,-3.39172,-3.81917,-127.44090
25.53100,-3.39385,-3.81848,-127.44326
25.54300,-3.39419,-3.82148,-127.44177
25.56500,-3.39444,-3.81361,-127.43478
25.58700,-3.39339,-3.81404,-127.44001
25.59900,-3.39239,-3.81392,-127.44078
25.62100,-3.39262,-3.81058,-127.44154
25.63300,-3.39333,-3.81083,-127.44395
25.65500,-3.39894,-3.80341,-127.45931
25.66700,-3.39960,-3.80787,-127.46605
25.68900,-3.39835,-3.79830,-127.47293
25.71100,-3.39436,-3.80149,-127.46646
25.72300,-3.39425,-3.80095,-127.46479
25.74500,-3.39151,-3.79067,-127.47023
25.75700,-3.39081,-3.79049,-127.45910
25.77900,-3.39250,-3.78597,-127.43672
25.79100,-3.39284,-3.78761,-127.43332
25.81300,-3.39482,-3.78532,-127.42493
25.83500,-3.38964,-3.78545,-127.42565
25.84700,-3.38933,-3.78928,-127.41742
25.86900,-3.39421,-3.78524,-127.42108
25.88100,-3.39499,-3.78435,-127.43385
25.90300,-3.40257,-3.78594,-127.40985
25.91500,-3.40276,-3.78613,-127.39846
25.93700,-3.40267,-3.78894,-127.40099
25.94900,-3.40341,-3.78989,-127.39410
25.97100,-3.40179,-3.79337,-127.38783
25.99300,-3.39556,-3.79356,-127.39962
26.00500,-3.39485,-3.79412,-127.39409
26.02700,-3.39628,-3.80183,-127.38586
26.03900,-3.39657,-3.80246,-127.37662
26.06100,-3.38648,-3.80280,-127.36876
26.07300,-3.38471,-3.80385,-127.37277
26.09500,-3.38802,-3.80714,-127.36938
26.11700,-3.39073,-3.80675,-127.36254
26.12900,-3.39020,-3.80475,-127.35152
26.15100,-3.38663,-3.80445,-127.32951
26.16300,-3.38222,-3.80316,-127.33245
26.18500,-3.38614,-3.80824,-127.31638
26.19700,-3.38507,-3.80516,-127.31128
26.21900,-3.38882,-3.80572,-127.30898
26.24100,-3.39304,-3.80161,-127.31383
26.25300,-3.39188,-3.80212,-127.31548
26.27500,-3.38762,-3.79729,-127.31970
26.28700,-3.38634,-3.79836,-127.32017
26.30900,-3.39302,-3.79830,-127.30171
26.32100,-3.39185,-3.79903,-127.29748
26.34300,-3.39651,-3.80381,-127.29140
26.35500,-3.39372,-3.80326,-127.29185
26.37700,-3.39460,-3.79996,-127.28801
26.39900,-3.39036,-3.79873,-127.28443
26.41100,-3.39063,-3.79451,-127.28277
26.43300,-3.39306,-3.79981,-127.30047
26.44500,-3.39076,-3.80359,-127.30260
26.46700,-3.38903,-3.79685,-127.28683
26.47900,-3.39020,-3.79664,-127.27218
26.50100,-3.38339,-3.80458,-127.25554
26.52300,-3.38918,-3.80008,-127.24934
26.53500,-3.38715,-3.80113,-127.25456
26.55700,-3.38325,-3.80078,-127.24269
26.56900,-3.38432,-3.80054,-127.25346
26.59100,-3.38392,-3.80225,-127.25132
26.60300,-3.37870,-3.79652,-127.25391
26.62500,-3.37577,-3.79887,-127.28242
26.63728,-3.37450,-3.80063,-127.28214
26.65900,-3.37619,-3.78876,-127.26221
26.68100,-3.37393,-3.79800,-127.27438
26.69300,-3.37090,-3.79413,-127.27615
26.71000,-3.36637,-3.79138,-127.28619
26.73200,-3.36539,-3.79406,-127.28770
26.74400,-3.36522,-3.79228,-127.28431
26.76600,-3.35883,-3.78713,-127.29338
26.78800,-3.34998,-3.79420,-127.29803
26.80000,-3.35320,-3.79390,-127.28666
26.82200,-3.35248,-3.79423,-127.28573
26.83400,-3.35452,-3.79385,-127.27458
26.85600,-3.35244,-3.79087,-127.28635
26.86800,-3.35119,-3.79393,-127.28019
26.89000,-3.34855,-3.79273,-127.26509
26.90200,-3.35241,-3.79186,-127.27330
26.92400,-3.35117,-3.79411,-127.29782
26.94600,-3.35217,-3.79736,-127.28925
26.95800,-3.35071,-3.79724,-127.28913
26.98000,-3.34781,-3.79517,-127.27067
26.99200,-3.34760,-3.79472,-127.28072
27.01400,-3.34870,-3.79221,-127.27810
27.02600,-3.34986,-3.79302,-127.26668
27.04800,-3.34511,-3.78326,-127.28462
27.07000,-3.34240,-3.78333,-127.28211
27.08200,-3.34088,-3.78202,-127.27982
27.10400,-3.33651,-3.78411,-127.30375
27.11600,-3.33782,-3.78386,-127.30714
27.13800,-3.33602,-3.77979,-127.33290
27.15000,-3.33264,-3.78114,-127.33359
27.17200,-3.33395,-3.78021,-127.35426
27.18428,-3.33032,-3.77569,-127.36256
27.20600,-3.32857,-3.77015,-127.35381
27.22800,-3.32625,-3.77710,-127.34317
27.24000,-3.32450,-3.77737,-127.34519
27.26200,-3.32743,-3.77664,-127.33808
27.27400,-3.32390,-3.78133,-127.35049
27.29600,-3.32422,-3.77554,-127.34792
27.30800,-3.31879,-3.77932,-127.36195
27.33000,-3.30773,-3.77262,-127.34787
27.35200,-3.30721,-3.76667,-127.35744
27.36400,-3.30434,-3.77070,-127.35869
27.38600,-3.29745,-3.77040,-127.35543
27.39800,-3.29909,-3.76334,-127.35993
27.42000,-3.30009,-3.77192,-127.36231
27.43200,-3.30024,-3.77405,-127.36340
27.45400,-3.29718,-3.77240,-127.32834
27.47600,-3.30817,-3.77546,-127.31126
27.48800,-3.30670,-3.77441,-127.31341
27.51000,-3.31051,-3.77657,-127.31737
27.52200,-3.30983,-3.77879,-127.31640
27.54400,-3.31332,-3.77996,-127.31065
27.55600,-3.31293,-3.78372,-127.30920
27.57800,-3.30769,-3.78197,-127.30869
27.59000,-3.30915,-3.77782,-127.30797
27.61200,-3.31071,-3.78466,-127.29929
27.63400,-3.31014,-3.78606,-127.30608
27.64600,-3.30911,-3.78985,-127.30164
27.66800,-3.31575,-3.78953,-127.30275
27.68000,-3.31604,-3.78978,-127.30820
27.70200,-3.31334,-3.79369,-127.30059
27.71400,-3.31350,-3.79480,-127.29829
27.73600,-3.31396,-3.79100,-127.28344
27.75800,-3.31195,-3.78886,-127.29062
27.77000,-3.30828,-3.79025,-127.27546
27.79200,-3.31553,-3.78629,-127.29449
27.80400,-3.31451,-3.78682,-127.29359
27.82600,-3.31468,-3.79117,-127.30091
27.83800,-3.31512,-3.79113,-127.28014
27.86000,-3.31342,-3.79569,-127.26699
27.88200,-3.30844,-3.80063,-127.23965
27.89400,-3.31093,-3.79840,-127.23810
27.91600,-3.31083,-3.79556,-127.24517
27.92800,-3.31092,-3.79840,-127.23646
27.95000,-3.30939,-3.80261,-127.24169
27.96200,-3.31117,-3.80259,-127.24218
27.98400,-3.31005,-3.80174,-127.23272
27.99600,-3.30416,-3.80053,-127.23565
28.01800,-3.30269,-3.80063,-127.25521
28.04000,-3.29728,-3.79767,-127.24152
28.05200,-3.30116,-3.80116,-127.24530
28.07400,-3.29386,-3.79923,-127.23971
28.08600,-3.29595,-3.79578,-127.22430
28.10800,-3.29076,-3.79773,-127.23454
28.12000,-3.28920,-3.80082,-127.23637
28.14200,-3.29006,-3.79561,-127.26457
28.16400,-3.28739,-3.79934,-127.26711
28.17600,-3.28754,-3.79918,-127.26946
28.19800,-3.29060,-3.79577,-127.26759
28.21000,-3.28866,-3.79328,-127.27216
28.23200,-3.28650,-3.78921,-127.28252
28.24400,-3.28722,-3.79149,-127.28671
28.26600,-3.28673,-3.79329,-127.27501
28.27828,-3.28820,-3.79195,-127.26755
28.30000,-3.28455,-3.79701,-127.25600
28.32200,-3.28999,-3.79154,-127.24545
28.33400,-3.29261,-3.78729,-127.24693
28.35600,-3.28959,-3.78915,-127.23542
28.36800,-3.28708,-3.78984,-127.22680
28.39000,-3.28894,-3.78517,-127.21855
28.40200,-3.28891,-3.78411,-127.21874
28.42400,-3.28872,-3.78616,-127.24453
28.44600,-3.28577,-3.77484,-127.23335
28.45800,-3.28392,-3.77786,-127.22874
28.48000,-3.28622,-3.78089,-127.23012
28.49200,-3.28313,-3.77984,-127.23148
28.51400,-3.28062,-3.78113,-127.24252
28.52600,-3.28346,-3.77551,-127.25028
28.54800,-3.29033,-3.78511,-127.25932
28.57000,-3.28848,-3.78481,-127.25213
28.58200,-3.29240,-3.78203,-127.25465
28.60400,-3.29571,-3.79327,-127.26449
28.61600,-3.29558,-3.79325,-127.26659
28.63800,-3.30422,-3.78671,-127.27354
28.65000,-3.30408,-3.78867,-127.27864
28.67200,-3.31346,-3.79439,-127.29115
28.68400,-3.31083,-3.79429,-127.29179
28.71100,-3.31289,-3.80686,-127.31367
28.72300,-3.30895,-3.80922,-127.31750
28.74500,-3.31543,-3.81119,-127.32288
28.75700,-3.31280,-3.80892,-127.32880
28.77900,-3.31076,-3.80767,-127.31617
28.79100,-3.30845,-3.80395,-127.32312
28.81300,-3.30536,-3.79918,-127.33174
28.83500,-3.30011,-3.79915,-127.31827
28.84700,-3.29832,-3.79719,-127.31738
28.86900,-3.29966,-3.79021,-127.30912
28.88100,-3.30044,-3.78760,-127.32065
28.90300,-3.30120,-3.78883,-127.29053
28.91500,-3.30024,-3.79068,-127.28358
28.93700,-3.29762,-3.79617,-127.24789
28.94900,-3.29976,-3.79439,-127.24251
28.97100,-3.29777,-3.79884,-127.24487
28.99300,-3.30033,-3.79631,-127.24786
29.00500,-3.29926,-3.79626,-127.24549
29.02700,-3.29541,-3.80133,-127.27733
29.03900,-3.29452,-3.80333,-127.27758
29.06100,-3.29938,-3.81113,-127.30517
29.07300,-3.29782,-3.81411,-127.30005
29.09500,-3.29526,-3.80660,-127.30105
29.11700,-3.29818,-3.80144,-127.27688
29.12900,-3.29597,-3.80531,-127.27921
29.15100,-3.30348,-3.80080,-127.28931
29.16300,-3.30268,-3.79700,-127.28194
29.18500,-3.29937,-3.79720,-127.27711
29.19700,-3.30155,-3.79556,-127.28016
29.21900,-3.29719,-3.79974,-127.29359
29.23100,-3.29670,-3.79630,-127.28721
29.25300,-3.29737,-3.80799,-127.30003
29.27500,-3.30040,-3.80661,-127.29237
29.28700,-3.29588,-3.80269,-127.31013
29.30900,-3.29932,-3.80555,-127.29896
29.32100,-3.29659,-3.80116,-127.30864
29.34300,-3.29499,-3.80326,-127.30522
29.35500,-3.29444,-3.79793,-127.30083
29.37700,-3.28632,-3.79485,-127.29820
29.39900,-3.29438,-3.79775,-127.28387
29.41100,-3.29530,-3.79657,-127.28104
29.43300,-3.29024,-3.79731,-127.27258
29.44500,-3.29391,-3.79589,-127.27098
29.46700,-3.29809,-3.79200,-127.26312
29.47900,-3.29677,-3.79249,-127.25932
29.50100,-3.30062,-3.79665,-127.26943
29.52300,-3.29645,-3.79498,-127.26312
29.53500,-3.29695,-3.79633,-127.26632
29.55700,-3.29681,-3.79005,-127.27682
29.56900,-3.29345,-3.79089,-127.27054
29.59100,-3.29546,-3.79771,-127.26459
29.60300,-3.29302,-3.79713,-127.26793
29.62500,-3.29210,-3.79806,-127.28301
29.63700,-3.29052,-3.79765,-127.28364
29.65900,-3.29187,-3.79221,-127.27714
29.68100,-3.29204,-3.79640,-127.26733
29.69300,-3.29053,-3.79662,-127.27413
29.71500,-3.29799,-3.79429,-127.28840
29.72700,-3.29593,-3.79410,-127.29851
29.74900,-3.29531,-3.78754,-127.31293
29.76100,-3.29250,-3.78960,-127.31441
29.78300,-3.28949,-3.78849,-127.33717
29.80500,-3.28793,-3.78917,-127.33678
29.81700,-3.28935,-3.78963,-127.33390
29.83900,-3.29190,-3.79051,-127.33022
29.85100,-3.29149,-3.79240,-127.33755
29.87300,-3.29344,-3.79270,-127.31308
29.88500,-3.29456,-3.78824,-127.30511
29.90700,-3.28814,-3.78955,-127.31633
29.92900,-3.28067,-3.79130,-127.31010
29.94100,-3.28062,-3.78736,-127.30827
29.96300,-3.29032,-3.79342,-127.28770
29.97500,-3.29052,-3.79651,-127.28201
29.99700,-3.29377,-3.79560,-127.28562
30.00900,-3.29425,-3.79391,-127.29376
30.03100,-3.29630,-3.78851,-127.30389
30.04300,-3.29957,-3.78754,-127.30718
30.06500,-3.30148,-3.78864,-127.35014
30.08700,-3.29509,-3.78863,-127.32829
30.09900,-3.29484,-3.78835,-127.31566
30.12100,-3.29661,-3.78559,-127.32699
30.13300,-3.29566,-3.78955,-127.33962
30.15500,-3.29323,-3.79277,-127.33078
30.16700,-3.29620,-3.79004,-127.33567
30.18900,-3.29704,-3.79079,-127.32274
30.21100,-3.29888,-3.79369,-127.33195
30.22300,-3.29768,-3.79105,-127.32021
30.24500,-3.30019,-3.78733,-127.34772
30.25700,-3.30167,-3.78386,-127.34730
30.27900,-3.29663,-3.78458,-127.31845
30.29100,-3.29477,-3.78290,-127.31951
30.31300,-3.29302,-3.79032,-127.32322
30.32500,-3.29313,-3.78853,-127.32043
30.34700,-3.28815,-3.78911,-127.33084
30.36900,-3.28513,-3.78682,-127.33038
30.38100,-3.28285,-3.78544,-127.32965
30.40300,-3.28705,-3.78715,-127.33018
30.41500,-3.29122,-3.78526,-127.32986
30.43700,-3.28974,-3.78127,-127.32309
30.44900,-3.28890,-3.78516,-127.33129
30.47100,-3.29774,-3.78814,-127.33328
30.49300,-3.29286,-3.79042,-127.30836
30.50500,-3.29356,-3.78908,-127.31062
30.52700,-3.28913,-3.79013,-127.31182
30.53900,-3.28519,-3.79457,-127.32837
30.56100,-3.28376,-3.79235,-127.33755
30.57300,-3.28143,-3.79296,-127.35407
30.59500,-3.27743,-3.79437,-127.36784
30.61700,-3.27392,-3.78858,-127.37016
30.62900,-3.27240,-3.78805,-127.36443
30.65100,-3.27037,-3.79082,-127.34619
30.66300,-3.27179,-3.78429,-127.34450
30.68500,-3.27180,-3.78371,-127.35110
30.69700,-3.26899,-3.78598,-127.35174
30.71400,-3.27524,-3.77657,-127.36710
30.73600,-3.27322,-3.78188,-127.36507
30.75800,-3.27723,-3.78797,-127.37807
30.77000,-3.27908,-3.78355,-127.38895
30.79200,-3.28304,-3.77909,-127.39455
30.80400,-3.28263,-3.77978,-127.40600
30.82600,-3.28120,-3.79121,-127.39798
30.83800,-3.28059,-3.79222,-127.39604
30.86000,-3.28012,-3.79076,-127.40857
30.87200,-3.27644,-3.79800,-127.41215
30.89400,-3.27845,-3.79640,-127.40376
30.91600,-3.28053,-3.79029,-127.40448
30.92800,-3.27531,-3.79171,-127.41685
30.95000,-3.27078,-3.78807,-127.42485
30.96200,-3.26968,-3.78726,-127.41811
30.98400,-3.26289,-3.78779,-127.44198
30.99600,-3.26558,-3.78630,-127.43562
31.01800,-3.26210,-3.78411,-127.43034
31.04000,-3.25135,-3.78557,-127.42764
31.05200,-3.25601,-3.78418,-127.42593
31.07400,-3.25064,-3.78461,-127.43771
31.08600,-3.25217,-3.78798,-127.43270
31.10800,-3.25530,-3.78617,-127.43116
31.12000,-3.25251,-3.78712,-127.41566
31.14200,-3.25189,-3.78604,-127.41010
31.16400,-3.24811,-3.79039,-127.42957
31.17600,-3.25033,-3.78894,-127.43157
31.19800,-3.25072,-3.79014,-127.44923
31.21000,-3.25154,-3.79378,-127.45571
31.23200,-3.25598,-3.79163,-127.45101
31.24400,-3.25397,-3.78789,-127.44523
31.26600,-3.25241,-3.79301,-127.45676
31.27800,-3.25287,-3.79076,-127.45463
31.30000,-3.24527,-3.79384,-127.43446
31.32200,-3.24425,-3.80111,-127.43437
31.33400,-3.24413,-3.79408,-127.44479
31.35600,-3.24171,-3.78801,-127.43806
31.36800,-3.24223,-3.79275,-127.44113
31.39000,-3.24461,-3.78469,-127.44360
31.40200,-3.24206,-3.78128,-127.43750
31.42400,-3.24208,-3.79292,-127.44828
31.44600,-3.24708,-3.78358,-127.43074
31.45800,-3.24503,-3.78402,-127.43973
31.48000,-3.24197,-3.79352,-127.42959
31.49200,-3.24390,-3.78989,-127.43721
31.51400,-3.23943,-3.78987,-127.43762
31.52600,-3.23859,-3.78698,-127.43847
31.54800,-3.23688,-3.77889,-127.45081
31.57000,-3.22659,-3.78328,-127.46394
31.58200,-3.22824,-3.78100,-127.46667
31.60400,-3.23146,-3.78331,-127.45459
31.61600,-3.23134,-3.78818,-127.45520
31.63800,-3.23728,-3.78107,-127.44410
31.65000,-3.23278,-3.78618,-127.43649
31.67200,-3.22747,-3.78047,-127.43674
31.68400,-3.23050,-3.77550,-127.43517
31.70600,-3.23412,-3.78167,-127.44794
31.72800,-3.24103,-3.77658,-127.44444
31.74000,-3.24016,-3.77539,-127.44587
31.76200,-3.23461,-3.77978,-127.45672
31.77400,-3.23580,-3.77340,-127.46496
31.79600,-3.23149,-3.77967,-127.48371
31.80800,-3.23182,-3.78228,-127.50101
31.83000,-3.23496,-3.77434,-127.54286
31.85200,-3.24061,-3.77715,-127.53369
31.86400,-3.23840,-3.77840,-127.53454
31.88600,-3.24076,-3.77863,-127.53830
31.89800,-3.23894,-3.78294,-127.53386
31.92000,-3.24074,-3.77808,-127.52496
31.93200,-3.23765,-3.77488,-127.52769
31.95400,-3.24032,-3.78140,-127.53417
31.96628,-3.24048,-3.77506,-127.53140
31.98800,-3.23977,-3.77798,-127.53204
32.01000,-3.23437,-3.78278,-127.52819
32.02200,-3.23554,-3.77912,-127.52692
32.04400,-3.23664,-3.78035,-127.52135
32.05600,-3.23163,-3.78592,-127.52073
32.07800,-3.22692,-3.78610,-127.52950
32.09000,-3.22770,-3.78754,-127.52508
32.11200,-3.22856,-3.79574,-127.52726
32.13400,-3.23467,-3.79155,-127.51360
32.14600,-3.23242,-3.78948,-127.51488
32.16800,-3.22528,-3.79804,-127.50730
32.18000,-3.22618,-3.79500,-127.50429
32.20200,-3.22971,-3.79503,-127.50323
32.21400,-3.22936,-3.79657,-127.50110
32.23600,-3.23664,-3.79580,-127.49017
32.25800,-3.23859,-3.80925,-127.48608
32.27000,-3.23756,-3.81091,-127.47516
32.29200,-3.23069,-3.80230,-127.45929
32.30400,-3.23285,-3.80558,-127.44820
32.32600,-3.23226,-3.79653,-127.45584
32.33800,-3.23154,-3.79496,-127.44669
32.36000,-3.22287,-3.80283,-127.46071
32.37200,-3.22459,-3.80118,-127.46561
32.39400,-3.22591,-3.80534,-127.48290
32.41600,-3.22646,-3.80833,-127.47293
32.42800,-3.22872,-3.80580,-127.47723
32.45000,-3.22876,-3.80739,-127.47400
32.46200,-3.22803,-3.80489,-127.46735
32.48400,-3.22300,-3.80301,-127.46612
32.49600,-3.22293,-3.79923,-127.47486
32.51800,-3.21993,-3.80056,-127.49259
32.54000,-3.21806,-3.80358,-127.51376
32.55200,-3.21726,-3.79970,-127.52534
32.57400,-3.21776,-3.80529,-127.52560
32.58600,-3.21828,-3.80313,-127.52562
32.60800,-3.21727,-3.80040,-127.54360
32.62000,-3.21439,-3.80028,-127.53702
32.64200,-3.21017,-3.80734,-127.51546
32.66400,-3.21184,-3.79378,-127.50785
32.67600,-3.20980,-3.79792,-127.51106
32.69800,-3.20405,-3.80071,-127.50462
32.71500,-3.20341,-3.79938,-127.49760
32.72700,-3.20347,-3.80267,-127.49265
32.74900,-3.20629,-3.79916,-127.48127
32.76100,-3.20675,-3.79820,-127.48214
32.78300,-3.21004,-3.80116,-127.47299
32.80500,-3.20679,-3.79306,-127.46821
32.81700,-3.20418,-3.79360,-127.47255
32.83900,-3.19416,-3.80299,-127.47192
32.85100,-3.19769,-3.80184,-127.47303
32.87300,-3.18919,-3.79706,-127.48938
32.88500,-3.18963,-3.79905,-127.49551
32.90700,-3.18263,-3.79429,-127.49114
32.91900,-3.17988,-3.79343,-127.48590
32.94100,-3.17754,-3.79689,-127.49073
32.96300,-3.18089,-3.79427,-127.50159
32.97500,-3.18090,-3.79628,-127.50785
32.99700,-3.17811,-3.79816,-127.52731
33.00900,-3.17924,-3.79457,-127.52712
33.03100,-3.17475,-3.79369,-127.54111
33.04300,-3.17517,-3.79269,-127.53393
33.06500,-3.17567,-3.79333,-127.51879
33.08700,-3.17751,-3.80616,-127.50838
33.09900,-3.17972,-3.80627,-127.50051
33.12100,-3.18471,-3.80610,-127.47956
33.13300,-3.18249,-3.80692,-127.46676
33.15500,-3.18295,-3.80543,-127.47366
33.16700,-3.18157,-3.81011,-127.48453
33.18900,-3.18051,-3.80445,-127.50536
33.21100,-3.16973,-3.80558,-127.50559
33.22300,-3.16804,-3.80529,-127.51353
33.24500,-3.17097,-3.80453,-127.52518
33.25700,-3.16693,-3.80270,-127.52399
33.27900,-3.17002,-3.80364,-127.51006
33.29100,-3.17051,-3.80365,-127.50270
33.31300,-3.16732,-3.79774,-127.52216
33.32500,-3.16475,-3.79909,-127.54290
33.34700,-3.16531,-3.80355,-127.50982
33.36900,-3.17219,-3.80103,-127.51289
33.38100,-3.17247,-3.80547,-127.51879
33.40300,-3.17044,-3.79537,-127.52757
33.41500,-3.17394,-3.79572,-127.53229
33.43700,-3.17541,-3.79889,-127.52218
33.44900,-3.17402,-3.79307,-127.52931
33.47100,-3.17836,-3.79471,-127.52774
33.49300,-3.17119,-3.79213,-127.53166
33.50500,-3.17382,-3.79075,-127.53313
33.52700,-3.16228,-3.79448,-127.53035
33.53900,-3.16325,-3.79063,-127.53217
33.56100,-3.16544,-3.78479,-127.53659
33.57300,-3.16398,-3.78400,-127.53633
33.59500,-3.17169,-3.79108,-127.55767
33.61700,-3.17234,-3.79043,-127.57611
33.62900,-3.17321,-3.79405,-127.57979
33.65100,-3.17426,-3.79711,-127.57630
33.66300,-3.17430,-3.79627,-127.57511
33.68500,-3.17922,-3.79811,-127.56747
33.69700,-3.17913,-3.79210,-127.56607
33.71900,-3.17586,-3.79772,-127.58615
33.73100,-3.17347,-3.79729,-127.58958
33.75300,-3.17922,-3.79653,-127.57462
33.77500,-3.17265,-3.79628,-127.58308
33.78700,-3.17254,-3.79552,-127.59068
33.80900,-3.17462,-3.79231,-127.57596
33.82100,-3.17448,-3.79003,-127.58192
33.84300,-3.17532,-3.78721,-127.58078
33.85500,-3.17468,-3.79142,-127.57578
33.87700,-3.17552,-3.78505,-127.57848
33.89900,-3.17811,-3.78667,-127.58164
33.91100,-3.17774,-3.78850,-127.56398
33.93300,-3.18340,-3.78037,-127.56290
33.94500,-3.18378,-3.78343,-127.57678
33.96700,-3.18881,-3.78300,-127.56741
33.97900,-3.18552,-3.77842,-127.56808
34.00100,-3.18343,-3.78819,-127.54311
34.01300,-3.18429,-3.78825,-127.54447
34.03500,-3.18788,-3.78628,-127.54475
34.05700,-3.18856,-3.78707,-127.55933
34.06900,-3.19062,-3.78579,-127.55570
34.09100,-3.19050,-3.77479,-127.55145
34.10300,-3.18915,-3.77442,-127.56305
34.12500,-3.18443,-3.77949,-127.57951
34.13700,-3.18163,-3.77593,-127.56350
34.15900,-3.18068,-3.77553,-127.56137
34.18100,-3.18127,-3.78083,-127.54979
34.19300,-3.18057,-3.78253,-127.54881
34.21500,-3.19045,-3.77992,-127.55141
34.22700,-3.18608,-3.78171,-127.56432
34.24900,-3.18278,-3.78464,-127.57249
34.26100,-3.18420,-3.78170,-127.56887
34.28300,-3.18025,-3.77926,-127.59103
34.30500,-3.17625,-3.77311,-127.56261
34.31700,-3.17552,-3.77245,-127.56011
34.33900,-3.18024,-3.76827,-127.55055
34.35100,-3.18285,-3.76718,-127.55698
34.37300,-3.17797,-3.76630,-127.53922
34.38500,-3.17847,-3.76299,-127.52424
34.40700,-3.17952,-3.76876,-127.53146
34.41900,-3.17881,-3.76926,-127.54845
34.44100,-3.17292,-3.76927,-127.53925
34.46300,-3.16457,-3.77717,-127.52731
34.47500,-3.16782,-3.77516,-127.53065
34.49700,-3.17285,-3.77619,-127.51957
34.50900,-3.17137,-3.77963,-127.51950
34.53100,-3.17762,-3.78389,-127.51551
34.54300,-3.18051,-3.78570,-127.50279
34.56500,-3.17881,-3.78215,-127.50756
34.58700,-3.17405,-3.78690,-127.50825
34.59900,-3.17402,-3.79157,-127.50964
34.62100,-3.17993,-3.78725,-127.50958
34.63300,-3.18212,-3.78766,-127.50813
34.65500,-3.17976,-3.79308,-127.50056
34.66700,-3.18184,-3.79537,-127.49893
34.68900,-3.18121,-3.79416,-127.47997
34.71600,-3.18003,-3.79607,-127.50574
34.72800,-3.17877,-3.79326,-127.50370
34.74000,-3.18004,-3.79672,-127.49451
34.76200,-3.18185,-3.79549,-127.50994
34.77400,-3.18193,-3.79463,-127.51890
34.79600,-3.18643,-3.79414,-127.52176
34.80800,-3.18729,-3.79212,-127.51935
34.83000,-3.18392,-3.79461,-127.54957
34.85200,-3.18322,-3.79778,-127.56733
34.86400,-3.18569,-3.79378,-127.57310
34.88600,-3.18489,-3.79592,-127.58370
34.89800,-3.18669,-3.79633,-127.56446
34.92000,-3.18791,-3.80030,-127.57875
34.93200,-3.18435,-3.80066,-127.56245
34.95400,-3.18713,-3.80082,-127.55954
34.96600,-3.18801,-3.79697,-127.56014
34.98800,-3.18567,-3.79647,-127.55398
35.01000,-3.18427,-3.80078,-127.54449
35.02200,-3.18535,-3.80097,-127.55593
35.04400,-3.18539,-3.80146,-127.55085
35.05600,-3.18431,-3.80275,-127.55361
35.07800,-3.18580,-3.80151,-127.54160
35.09000,-3.18717,-3.80207,-127.54693
35.11200,-3.18939,-3.80001,-127.53161
35.13400,-3.19312,-3.79856,-127.54077
35.14600,-3.19375,-3.79718,-127.52684
35.16800,-3.19779,-3.79505,-127.52567
35.18000,-3.19538,-3.79567,-127.53519
35.20200,-3.20307,-3.79977,-127.55342
35.21400,-3.20282,-3.80245,-127.55971
35.23600,-3.19856,-3.79556,-127.54353
35.25800,-3.20075,-3.78577,-127.52166
35.27000,-3.19809,-3.78475,-127.52589
35.29200,-3.20082,-3.77537,-127.54487
35.30400,-3.19793,-3.78144,-127.56495
35.32600,-3.19841,-3.78542,-127.55095
35.33800,-3.20164,-3.78644,-127.55961
35.36000,-3.20053,-3.78189,-127.54423
35.37200,-3.19935,-3.78181,-127.56042
35.39400,-3.19811,-3.78375,-127.54514
35.41600,-3.19509,-3.78131,-127.54393
35.42800,-3.19973,-3.78027,-127.54402
35.45000,-3.20001,-3.77728,-127.55117
35.46200,-3.20068,-3.78028,-127.55254
35.48400,-3.20640,-3.77489,-127.53591
35.49600,-3.20695,-3.77518,-127.54074
35.51800,-3.20256,-3.77331,-127.53551
35.54000,-3.19931,-3.76551,-127.54848
35.55200,-3.19636,-3.76520,-127.54535
35.57400,-3.19371,-3.76427,-127.55267
35.58600,-3.19222,-3.76123,-127.54316
35.60800,-3.19218,-3.76661,-127.53854
35.62000,-3.19165,-3.76429,-127.54979
35.64200,-3.18763,-3.76661,-127.56954
35.65400,-3.18826,-3.76844,-127.56659
35.67600,-3.18352,-3.77347,-127.57730
35.69800,-3.18962,-3.77506,-127.60440
35.71000,-3.18730,-3.77837,-127.59721
35.73200,-3.19489,-3.77736,-127.58646
35.74400,-3.19746,-3.77468,-127.58289
35.76600,-3.19824,-3.77963,-127.58607
35.77800,-3.20078,-3.77778,-127.57561
35.80000,-3.19640,-3.77480,-127.57091
35.82200,-3.19289,-3.77880,-127.57616
35.83400,-3.19331,-3.77595,-127.57832
35.85600,-3.19361,-3.77607,-127.56920
35.86800,-3.19538,-3.77583,-127.56409
35.89000,-3.20134,-3.77322,-127.56355
35.90200,-3.20156,-3.77133,-127.56021
35.92400,-3.19845,-3.77536,-127.54960
35.94600,-3.20307,-3.76688,-127.55214
35.95800,-3.20326,-3.76966,-127.55772
35.98000,-3.19640,-3.76893,-127.56628
35.99200,-3.20266,-3.76284,-127.56049
36.01400,-3.19692,-3.77285,-127.55312
36.02600,-3.19569,-3.77212,-127.55932
36.04800,-3.19724,-3.77072,-127.57380
36.06000,-3.19635,-3.77695,-127.57599
36.08200,-3.18500,-3.77499,-127.56925
36.10400,-3.18769,-3.77492,-127.55723
36.11600,-3.18515,-3.77949,-127.55365
36.13800,-3.18980,-3.77912,-127.54084
36.15000,-3.18649,-3.77797,-127.52476
36.17200,-3.18382,-3.78670,-127.52819
36.18400,-3.18545,-3.77914,-127.54221
36.20600,-3.18248,-3.78216,-127.53558
36.22800,-3.18469,-3.78288,-127.53880
36.24000,-3.18651,-3.77592,-127.54074
36.26200,-3.18818,-3.78569,-127.56446
36.27400,-3.18617,-3.78297,-127.55878
36.29600,-3.18917,-3.77594,-127.56246
36.30800,-3.18834,-3.77579,-127.55643
36.33000,-3.18711,-3.76856,-127.56367
36.35200,-3.17882,-3.76245,-127.53018
36.36400,-3.18029,-3.76303,-127.52724
36.38600,-3.18479,-3.76429,-127.50787
36.39800,-3.18771,-3.76519,-127.50735
36.42000,-3.18196,-3.77029,-127.53152
36.43200,-3.18372,-3.76927,-127.52992
36.45400,-3.17508,-3.77423,-127.51183
36.46600,-3.17682,-3.77121,-127.50819
36.48800,-3.17314,-3.77062,-127.51532
36.51000,-3.16667,-3.77162,-127.48883
36.52200,-3.17384,-3.77160,-127.48962
36.54400,-3.17545,-3.76766,-127.48623
36.55600,-3.17256,-3.76891,-127.48259
36.57800,-3.17561,-3.76881,-127.48846
36.59000,-3.17582,-3.76939,-127.48727
36.61200,-3.17860,-3.77537,-127.50315
36.63400,-3.17456,-3.77553,-127.48927
36.64600,-3.17477,-3.77231,-127.49855
36.66800,-3.17997,-3.77341,-127.50639
36.68000,-3.17865,-3.77326,-127.51772
36.70200,-3.18153,-3.77553,-127.50087
36.71900,-3.17601,-3.77828,-127.50816
36.73100,-3.17589,-3.77780,-127.50994
36.75300,-3.17442,-3.78018,-127.51262
36.77500,-3.18015,-3.78274,-127.50854
36.78700,-3.18020,-3.77858,-127.52091
36.80900,-3.17853,-3.78317,-127.53422
36.82100,-3.17883,-3.78423,-127.52702
36.84300,-3.17374,-3.77802,-127.53728
36.85500,-3.17357,-3.77525,-127.54498
36.87700,-3.17894,-3.77467,-127.52596
36.89900,-3.17742,-3.77841,-127.53540
36.91100,-3.17639,-3.77721,-127.52762
36.93300,-3.16826,-3.77316,-127.53863
36.94500,-3.16588,-3.77411,-127.53650
36.96700,-3.16782,-3.76692,-127.54080
36.97900,-3.16449,-3.76453,-127.54592
37.00100,-3.16893,-3.76473,-127.55103
37.01300,-3.16805,-3.76192,-127.55729
37.03500,-3.17502,-3.77130,-127.55622
37.05700,-3.17746,-3.76856,-127.57008
37.06900,-3.17709,-3.76567,-127.57145
37.09100,-3.17168,-3.76155,-127.56838
37.10300,-3.17172,-3.76141,-127.56709
37.12500,-3.17496,-3.76431,-127.57333
37.13700,-3.17551,-3.76976,-127.57449
37.15900,-3.18120,-3.76106,-127.56374
37.18100,-3.18069,-3.75331,-127.54685
37.19300,-3.18354,-3.75808,-127.53543
37.21500,-3.18348,-3.75011,-127.52363
37.22700,-3.18348,-3.75089,-127.52567
37.24900,-3.18344,-3.74911,-127.51981
37.26100,-3.18377,-3.74693,-127.53685
37.28300,-3.18672,-3.75480,-127.54497
37.29528,-3.18882,-3.75303,-127.53831
37.31700,-3.18113,-3.74614,-127.53181
37.33900,-3.18176,-3.74791,-127.53834
37.35100,-3.18175,-3.74757,-127.53748
37.37300,-3.17997,-3.75273,-127.52945
37.38500,-3.17656,-3.75572,-127.52216
37.40700,-3.18046,-3.74679,-127.53958
37.41900,-3.17981,-3.74627,-127.55717
37.44100,-3.18073,-3.74461,-127.57216
37.46300,-3.18414,-3.73829,-127.56261
37.47500,-3.18316,-3.74272,-127.56825
37.49700,-3.18012,-3.73735,-127.57169
37.50900,-3.17984,-3.73715,-127.58057
37.53100,-3.17717,-3.73706,-127.59291
37.54300,-3.17890,-3.73497,-127.59951
37.56500,-3.17483,-3.73321,-127.58836
37.58700,-3.17430,-3.73344,-127.59348
37.59900,-3.17650,-3.73129,-127.59113
37.62100,-3.18169,-3.72632,-127.58340
37.63300,-3.18175,-3.72958,-127.59879
37.65500,-3.17619,-3.72472,-127.58354
37.66700,-3.17636,-3.72786,-127.57936
37.68900,-3.17808,-3.72757,-127.57127
37.70100,-3.17782,-3.72428,-127.57092
37.72300,-3.16982,-3.73558,-127.55588
37.74500,-3.17088,-3.72962,-127.56320
37.75700,-3.17494,-3.72435,-127.56548
37.77900,-3.16585,-3.73180,-127.54636
37.79100,-3.16382,-3.73126,-127.55652
37.81300,-3.16042,-3.73472,-127.55838
37.82500,-3.16203,-3.73842,-127.55880
37.84700,-3.16613,-3.73874,-127.57314
37.86900,-3.16737,-3.74237,-127.56279
37.88100,-3.16863,-3.74113,-127.55636
37.90300,-3.17089,-3.74084,-127.56409
37.91500,-3.16766,-3.74400,-127.56323
37.93700,-3.16820,-3.74426,-127.57330
37.94900,-3.16880,-3.74340,-127.58618
37.97100,-3.16370,-3.75196,-127.60694
37.99300,-3.16802,-3.75267,-127.61674
38.00500,-3.16778,-3.75471,-127.61534
38.02700,-3.16361,-3.74840,-127.62249
38.03900,-3.16204,-3.74869,-127.61536
38.06100,-3.16201,-3.75562,-127.59581
38.07300,-3.16133,-3.75730,-127.60574
38.09500,-3.15868,-3.75434,-127.63152
38.10700,-3.15656,-3.75343,-127.61707
38.12900,-3.16019,-3.74773,-127.62798
38.15100,-3.16602,-3.74647,-127.62189
38.16300,-3.16668,-3.74604,-127.61406
38.18500,-3.16906,-3.73560,-127.62201
38.19700,-3.17145,-3.73929,-127.61866
38.21900,-3.17677,-3.74370,-127.61584
38.23100,-3.17639,-3.74452,-127.61517
38.25300,-3.17251,-3.74498,-127.62999
38.27500,-3.18592,-3.74708,-127.61396
38.28700,-3.18626,-3.74898,-127.60915
38.30900,-3.17791,-3.75326,-127.59344
38.32100,-3.17845,-3.75367,-127.59718
38.34300,-3.17480,-3.74913,-127.58299
38.35500,-3.17330,-3.75091,-127.58275
38.37700,-3.17731,-3.74703,-127.58704
38.39900,-3.17350,-3.75162,-127.59212
38.41100,-3.16871,-3.75858,-127.60096
38.43300,-3.16698,-3.75667,-127.60869
38.44500,-3.16836,-3.75820,-127.60400
38.46700,-3.16952,-3.76197,-127.59626
38.47900,-3.17259,-3.76009,-127.59417
38.50100,-3.16865,-3.76396,-127.60718
38.51300,-3.16977,-3.76578,-127.61506
38.53500,-3.16800,-3.75928,-127.62428
38.55700,-3.15351,-3.76922,-127.61966
38.56900,-3.15303,-3.76162,-127.61864
38.59100,-3.15135,-3.76463,-127.61228
38.60300,-3.14880,-3.77015,-127.61356
38.62500,-3.15033,-3.76382,-127.60670
38.63700,-3.14368,-3.76405,-127.61707
38.65900,-3.14300,-3.77161,-127.61230
38.68100,-3.14376,-3.76300,-127.59486
38.69300,-3.14108,-3.76181,-127.59163
38.72000,-3.14410,-3.76420,-127.57824
38.73200,-3.14470,-3.76559,-127.58095
38.74400,-3.14297,-3.76785,-127.58624
38.76600,-3.14133,-3.76919,-127.58211
38.77800,-3.14532,-3.76953,-127.58413
38.80000,-3.14265,-3.76762,-127.56946
38.82200,-3.14469,-3.76694,-127.54193
38.83400,-3.14807,-3.76916,-127.54226
38.85600,-3.14993,-3.76679,-127.54219
38.86800,-3.15024,-3.76467,-127.54741
38.89000,-3.15194,-3.76237,-127.56467
38.90200,-3.15128,-3.76073,-127.56773
38.92400,-3.14574,-3.74932,-127.57468
38.94600,-3.14820,-3.75341,-127.57402
38.95800,-3.14671,-3.75501,-127.58109
38.98000,-3.14525,-3.75299,-127.58506
38.99200,-3.14926,-3.75316,-127.58601
39.01400,-3.15065,-3.75993,-127.60464
39.02600,-3.15362,-3.75414,-127.60931
39.04800,-3.14795,-3.76031,-127.60231
39.06000,-3.14834,-3.76047,-127.60474
39.08200,-3.14598,-3.75333,-127.57118
39.10400,-3.15483,-3.75544,-127.57029
39.11600,-3.15339,-3.75699,-127.56909
39.13800,-3.15582,-3.75648,-127.57130
39.15000,-3.16001,-3.75656,-127.57571
39.17200,-3.15643,-3.75625,-127.58088
39.18400,-3.15683,-3.75757,-127.58788
39.20600,-3.15490,-3.75182,-127.58479
39.22800,-3.15723,-3.75424,-127.59448
39.24000,-3.15638,-3.75259,-127.58292
39.26200,-3.15887,-3.74573,-127.58591
39.27400,-3.16242,-3.74833,-127.57770
39.29600,-3.15719,-3.75184,-127.56996
39.30800,-3.16117,-3.74816,-127.56602
39.33000,-3.16428,-3.76606,-127.58810
39.34200,-3.16668,-3.76711,-127.59472
39.36400,-3.16381,-3.75719,-127.59673
39.38600,-3.15993,-3.76247,-127.57619
39.39800,-3.15943,-3.75966,-127.59436
39.42000,-3.16631,-3.75858,-127.58802
39.43200,-3.16905,-3.75486,-127.58819
39.45400,-3.16991,-3.76024,-127.55548
39.46600,-3.16741,-3.76378,-127.55666
39.48800,-3.16967,-3.75556,-127.54507
39.51000,-3.17291,-3.75286,-127.54034
39.52200,-3.17509,-3.75504,-127.52731
39.54400,-3.17559,-3.75160,-127.55202
39.55600,-3.17873,-3.75412,-127.55854
39.57800,-3.17540,-3.75766,-127.57118
39.59000,-3.16972,-3.75704,-127.57552
39.61200,-3.17414,-3.76386,-127.57465
39.63400,-3.17137,-3.76065,-127.57234
39.64600,-3.16982,-3.75406,-127.57696
39.66800,-3.17250,-3.75202,-127.57252
39.68000,-3.17260,-3.75426,-127.57249
39.70200,-3.17297,-3.74712,-127.56286
39.71400,-3.17216,-3.74622,-127.55602
39.73600,-3.17378,-3.74955,-127.56908
39.74800,-3.17406,-3.75306,-127.57328
39.77000,-3.17250,-3.75178,-127.57705
39.79200,-3.17568,-3.76353,-127.59303
39.80400,-3.17441,-3.76237,-127.59557
39.82600,-3.17563,-3.76693,-127.60008
39.83800,-3.17414,-3.76839,-127.60241
39.86000,-3.18595,-3.76136,-127.60773
39.87200,-3.18336,-3.76609,-127.61430
39.89400,-3.18328,-3.76748,-127.62298
39.91600,-3.18740,-3.76935,-127.63893
39.92800,-3.18643,-3.76920,-127.63836
39.95000,-3.19242,-3.76534,-127.64672
39.96200,-3.19388,-3.76542,-127.63690
39.98400,-3.19037,-3.76597,-127.62567
39.99600,-3.19245,-3.76711,-127.62844
40.01800,-3.19097,-3.76739,-127.63239
40.04000,-3.19968,-3.76476,-127.61906
40.05200,-3.19838,-3.76111,-127.60861
40.07400,-3.20176,-3.75675,-127.58514
40.08600,-3.20456,-3.75545,-127.57909
40.10800,-3.19582,-3.76028,-127.57509
40.12000,-3.19807,-3.76111,-127.58145
40.14200,-3.20195,-3.76592,-127.58560
40.15400,-3.20010,-3.76492,-127.59270
40.17600,-3.19898,-3.76400,-127.59113
40.19800,-3.19872,-3.75932,-127.59141
40.21000,-3.19773,-3.75949,-127.58767
40.23200,-3.20167,-3.74855,-127.61349
40.24400,-3.20214,-3.74737,-127.60371
40.26600,-3.20200,-3.74805,-127.60808
40.27800,-3.19895,-3.74707,-127.60124
40.30000,-3.20751,-3.74160,-127.59130
40.32200,-3.20819,-3.74325,-127.62642
40.33400,-3.20935,-3.74632,-127.61906
40.35600,-3.21013,-3.74788,-127.62032
40.36800,-3.20824,-3.74896,-127.62510
40.39000,-3.20614,-3.74787,-127.60846
40.40200,-3.20593,-3.74775,-127.61266
40.42400,-3.20659,-3.75045,-127.61504
40.43600,-3.20598,-3.75011,-127.61194
40.45800,-3.20385,-3.75658,-127.61323
40.48000,-3.20788,-3.76195,-127.60789
40.49200,-3.20220,-3.76415,-127.60709
40.51400,-3.19948,-3.77221,-127.59972
40.52600,-3.20015,-3.76937,-127.57943
40.54800,-3.20175,-3.76971,-127.56151
40.56000,-3.20413,-3.76762,-127.55273
40.58200,-3.20052,-3.75618,-127.54346
40.60400,-3.20411,-3.75733,-127.54295
40.61600,-3.20381,-3.75870,-127.54421
40.63800,-3.21110,-3.76704,-127.52565
40.65000,-3.21256,-3.76417,-127.53056
40.67200,-3.21214,-3.75799,-127.50818
40.68400,-3.21671,-3.76173,-127.52287
40.70600,-3.21254,-3.75819,-127.52404
40.72300,-3.20729,-3.75846,-127.50505
40.74500,-3.20377,-3.75798,-127.48589
40.75700,-3.20622,-3.75468,-127.47766
40.77900,-3.20619,-3.75264,-127.49090
40.79100,-3.20831,-3.75745,-127.47913
40.81300,-3.21314,-3.75365,-127.47756
40.82500,-3.21430,-3.75200,-127.48651
40.84700,-3.21908,-3.75483,-127.50063
40.86900,-3.22566,-3.74557,-127.51528
40.88100,-3.22752,-3.74521,-127.51283
40.90300,-3.22702,-3.75004,-127.50872
40.91500,-3.22393,-3.75177,-127.51495
40.93700,-3.22396,-3.76125,-127.52990
40.94900,-3.22495,-3.75719,-127.53148
40.97100,-3.22360,-3.75832,-127.53182
40.98328,-3.22416,-3.76331,-127.53818
41.00600,-3.22332,-3.76248,-127.50938
41.02800,-3.22340,-3.75516,-127.51708
41.04000,-3.22544,-3.75733,-127.52195
41.06200,-3.23094,-3.75710,-127.53239
41.07400,-3.23034,-3.75642,-127.53341
41.09600,-3.23740,-3.76082,-127.51079
41.10800,-3.24119,-3.76397,-127.51962
41.13000,-3.24354,-3.76323,-127.52121
41.14200,-3.24325,-3.76341,-127.52588
41.16400,-3.23969,-3.76685,-127.53825
41.18600,-3.23912,-3.76911,-127.55505
41.19800,-3.23976,-3.77392,-127.55912
41.22000,-3.24313,-3.77294,-127.57156
41.23200,-3.24418,-3.76932,-127.58083
41.25400,-3.24260,-3.77344,-127.59681
41.26600,-3.24273,-3.76679,-127.60555
41.28800,-3.24232,-3.76412,-127.60074
41.31000,-3.24154,-3.76703,-127.60036
41.32200,-3.24523,-3.76768,-127.61102
41.34400,-3.24161,-3.77463,-127.61593
41.35600,-3.24077,-3.77626,-127.61839
41.37800,-3.23357,-3.77321,-127.61332
41.39000,-3.23259,-3.77389,-127.61259
41.41200,-3.23426,-3.77517,-127.63779
41.43400,-3.23523,-3.77189,-127.63410
41.44600,-3.23481,-3.77052,-127.61568
41.46800,-3.23840,-3.77140,-127.64645
41.48000,-3.23894,-3.77117,-127.65472
41.50200,-3.24387,-3.77324,-127.64675
41.51400,-3.24318,-3.77468,-127.64754
41.53600,-3.23752,-3.78910,-127.65079
41.54800,-3.23888,-3.78578,-127.64767
41.57000,-3.23843,-3.79025,-127.64209
41.59200,-3.23783,-3.78750,-127.63937
41.60400,-3.23622,-3.78470,-127.64123
41.62600,-3.23132,-3.79544,-127.64064
41.63800,-3.23189,-3.79753,-127.63463
41.66000,-3.23474,-3.78669,-127.63665
41.67200,-3.23330,-3.78696,-127.63488
41.69400,-3.23221,-3.78974,-127.63094
41.71600,-3.23539,-3.78475,-127.64342
41.72800,-3.23430,-3.78298,-127.64574
41.75000,-3.22955,-3.78112,-127.64380
41.76200,-3.22995,-3.78088,-127.63697
41.78400,-3.23248,-3.77860,-127.61678
41.79600,-3.22980,-3.77620,-127.62224
41.81800,-3.22385,-3.78230,-127.63589
41.83029,-3.22056,-3.78305,-127.63723
41.85200,-3.22461,-3.78830,-127.65125
41.87400,-3.22555,-3.78546,-127.63888
41.88600,-3.22426,-3.78671,-127.62661
41.90800,-3.22865,-3.78468,-127.62469
41.92000,-3.22592,-3.78133,-127.62444
41.94200,-3.22423,-3.78147,-127.64285
41.95400,-3.22656,-3.77788,-127.65520
41.97600,-3.22479,-3.77779,-127.66937
41.99800,-3.22557,-3.78120,-127.67639
42.01000,-3.22411,-3.77972,-127.67942
42.03200,-3.22382,-3.78538,-127.68671
42.04400,-3.22713,-3.78345,-127.70235
42.06600,-3.22335,-3.78275,-127.71198
42.07800,-3.22002,-3.77929,-127.70544
42.10000,-3.22071,-3.77363,-127.69875
42.12200,-3.22313,-3.77764,-127.69602
42.13400,-3.21765,-3.77958,-127.69739
42.15600,-3.21558,-3.78032,-127.70058
42.16800,-3.21512,-3.78213,-127.69930
42.19000,-3.22041,-3.78345,-127.67534
42.20200,-3.22170,-3.78211,-127.68437
42.22400,-3.21840,-3.77739,-127.67392
42.23600,-3.21672,-3.77260,-127.67669
42.25800,-3.21521,-3.77045,-127.67036
42.28000,-3.21624,-3.77176,-127.66481
42.29200,-3.21495,-3.77077,-127.67459
42.31400,-3.21474,-3.77006,-127.68079
42.32600,-3.21759,-3.77345,-127.68128
42.34800,-3.22288,-3.77107,-127.69084
42.36000,-3.21560,-3.77361,-127.68125
42.38200,-3.21609,-3.77234,-127.66205
42.40400,-3.21817,-3.77162,-127.65243
42.41600,-3.21873,-3.77210,-127.65325
42.43800,-3.21891,-3.77759,-127.63704
42.45000,-3.21629,-3.77976,-127.63504
42.47200,-3.21700,-3.77795,-127.64202
42.48400,-3.21541,-3.77967,-127.64209
42.50600,-3.20621,-3.77371,-127.62537
42.52800,-3.21158,-3.77544,-127.61819
42.54000,-3.21242,-3.77506,-127.62021
42.56200,-3.21228,-3.76829,-127.61642
42.57400,-3.21534,-3.76688,-127.62693
42.59600,-3.21205,-3.77210,-127.62878
42.60800,-3.21242,-3.77137,-127.62341
42.63000,-3.20735,-3.76847,-127.61444
42.64200,-3.20662,-3.76544,-127.62436
42.66400,-3.20512,-3.76733,-127.59970
42.68600,-3.19926,-3.75994,-127.59441
42.69800,-3.19651,-3.76157,-127.58630
42.72500,-3.19621,-3.75947,-127.54364
42.73700,-3.20047,-3.75976,-127.53088
42.74900,-3.20002,-3.76099,-127.52171
42.77100,-3.20161,-3.75642,-127.50811
42.78300,-3.20170,-3.76237,-127.50780
42.80500,-3.20160,-3.76795,-127.50934
42.82700,-3.20065,-3.76586,-127.51793
42.83900,-3.19838,-3.76520,-127.51400
42.86100,-3.20277,-3.76618,-127.49496
42.87300,-3.20382,-3.75999,-127.48942
42.89500,-3.19796,-3.76769,-127.50521
42.90700,-3.20237,-3.76868,-127.50129
42.92900,-3.20743,-3.76289,-127.47967
42.95100,-3.20761,-3.77551,-127.49914
42.96300,-3.20962,-3.77508,-127.50057
42.98500,-3.20883,-3.76067,-127.50217
42.99700,-3.20695,-3.77049,-127.49757
43.01900,-3.21064,-3.76088,-127.50127
43.03100,-3.21235,-3.76259,-127.49384
43.05300,-3.21274,-3.76938,-127.49607
43.07500,-3.20874,-3.76523,-127.51226
43.08700,-3.20882,-3.76562,-127.51309
43.10900,-3.21169,-3.76086,-127.51962
43.12100,-3.21120,-3.75828,-127.51353
43.14300,-3.20851,-3.76259,-127.50213
43.15500,-3.20931,-3.76462,-127.50726
43.17700,-3.20959,-3.76762,-127.52945
43.18900,-3.20639,-3.76583,-127.52663
43.21100,-3.19969,-3.76838,-127.52476
43.23300,-3.20177,-3.77026,-127.53077
43.24500,-3.20554,-3.76852,-127.54614
43.26700,-3.20205,-3.76401,-127.54998
43.27900,-3.20429,-3.76941,-127.54335
43.30100,-3.20431,-3.76284,-127.54665
43.31300,-3.20493,-3.76808,-127.54879
43.33500,-3.20536,-3.76952,-127.55209
43.35700,-3.20649,-3.76500,-127.56659
43.36900,-3.20525,-3.76494,-127.56982
43.39100,-3.20891,-3.76766,-127.55643
43.40300,-3.21251,-3.76648,-127.54333
43.42500,-3.21023,-3.76293,-127.52931
43.43700,-3.20899,-3.76144,-127.52647
43.45900,-3.20723,-3.75673,-127.53115
43.47129,-3.20413,-3.76010,-127.52892
43.49300,-3.20145,-3.76065,-127.51666
43.51500,-3.20292,-3.76130,-127.53890
43.52700,-3.20213,-3.75885,-127.55013
43.54900,-3.20267,-3.75816,-127.57729
43.56100,-3.20110,-3.75713,-127.58801
43.58300,-3.20423,-3.75001,-127.59277
43.59500,-3.20490,-3.75054,-127.60089
43.61700,-3.19865,-3.76048,-127.60407
43.63900,-3.20077,-3.74984,-127.60300
43.65100,-3.19906,-3.75225,-127.59707
43.67300,-3.19594,-3.75716,-127.57862
43.68500,-3.19797,-3.75838,-127.56345
43.70700,-3.19348,-3.75926,-127.55084
43.71900,-3.19026,-3.76215,-127.55097
43.74100,-3.18982,-3.75665,-127.55771
43.76300,-3.18813,-3.75772,-127.57594
43.77500,-3.18813,-3.76255,-127.56844
43.79700,-3.19331,-3.75658,-127.56850
43.80900,-3.19410,-3.76000,-127.57272
43.83100,-3.19001,-3.76784,-127.56004
43.84300,-3.18687,-3.76660,-127.55567
43.86500,-3.18445,-3.77100,-127.55097
43.87700,-3.18767,-3.77087,-127.55163
43.89900,-3.19335,-3.77096,-127.54819
43.92100,-3.19342,-3.77830,-127.52398
43.93300,-3.19568,-3.77603,-127.54193
43.95500,-3.19463,-3.77359,-127.55840
43.96700,-3.19446,-3.78070,-127.56454
43.98900,-3.18886,-3.77809,-127.54405
44.00100,-3.18607,-3.78020,-127.54141
44.02300,-3.18812,-3.78107,-127.56477
44.04500,-3.18823,-3.77837,-127.55099
44.05700,-3.18443,-3.78071,-127.54801
44.07900,-3.17978,-3.78734,-127.54542
44.09100,-3.17881,-3.78546,-127.54689
44.11300,-3.16722,-3.78722,-127.54620
44.12500,-3.16923,-3.78830,-127.55143
44.14700,-3.16991,-3.78575,-127.56586
44.16900,-3.16895,-3.78621,-127.53509
44.18100,-3.16828,-3.78811,-127.54302
44.20300,-3.16006,-3.78624,-127.53460
44.21500,-3.16424,-3.78709,-127.53288
44.23700,-3.16035,-3.79148,-127.53996
44.24900,-3.16128,-3.78597,-127.54066
44.27100,-3.16063,-3.78773,-127.55260
44.28300,-3.16220,-3.78851,-127.54716
44.30500,-3.16026,-3.78591,-127.54794
44.32700,-3.15068,-3.78743,-127.56616
44.33900,-3.15001,-3.78973,-127.56586
44.36100,-3.14758,-3.78729,-127.57604
44.37300,-3.14685,-3.78704,-127.58382
44.39500,-3.14810,-3.79239,-127.59331
44.40700,-3.14755,-3.79168,-127.59761
44.42900,-3.15108,-3.79123,-127.57843
44.45100,-3.14882,-3.79543,-127.58807
44.46300,-3.14913,-3.79535,-127.59113
44.48500,-3.14691,-3.78602,-127.57713
44.49700,-3.14448,-3.79166,-127.58942
44.51900,-3.14680,-3.79514,-127.58515
44.53100,-3.14887,-3.78917,-127.58620
44.55300,-3.14765,-3.79028,-127.58800
44.57500,-3.14714,-3.79442,-127.60503
44.58700,-3.14607,-3.79198,-127.60153
44.60900,-3.13651,-3.79189,-127.61145
44.62100,-3.13521,-3.79183,-127.59718
44.64300,-3.13435,-3.79326,-127.61407
44.65500,-3.13596,-3.79561,-127.60416
44.67700,-3.13587,-3.79670,-127.61713
44.68900,-3.13428,-3.79574,-127.62049
44.71100,-3.13106,-3.79586,-127.59509
44.72800,-3.12862,-3.79124,-127.59329
44.75000,-3.13353,-3.78986,-127.61124
44.76200,-3.13035,-3.78873,-127.61858
44.78400,-3.13170,-3.78257,-127.61976
44.79600,-3.12961,-3.78129,-127.61620
44.81800,-3.13003,-3.78438,-127.60670
44.83000,-3.13244,-3.78517,-127.60874
44.85200,-3.13559,-3.78495,-127.61436
44.87400,-3.12855,-3.79017,-127.63347
44.88600,-3.12549,-3.79462,-127.62849
44.90800,-3.12905,-3.78927,-127.61722
44.92000,-3.13432,-3.78751,-127.62863
44.94200,-3.12671,-3.79264,-127.61679
44.95400,-3.12759,-3.79252,-127.60798
44.97600,-3.12956,-3.79268,-127.61791
44.99800,-3.13979,-3.79801,-127.62943
45.01000,-3.14064,-3.79764,-127.61395
45.03200,-3.13758,-3.80205,-127.60637
45.04400,-3.13915,-3.80355,-127.59998
45.06600,-3.14270,-3.80333,-127.60332
45.07800,-3.14131,-3.80224,-127.60070
45.10000,-3.14205,-3.81069,-127.61911
45.12200,-3.14437,-3.80166,-127.62041
45.13400,-3.15041,-3.80334,-127.60989
45.15600,-3.14327,-3.81183,-127.63132
45.16800,-3.14514,-3.81291,-127.62301
45.19000,-3.14047,-3.81311,-127.60667
45.20200,-3.13836,-3.81734,-127.60112
45.22400,-3.13606,-3.81405,-127.60126
45.23600,-3.13519,-3.81752,-127.59858
45.25800,-3.13304,-3.82073,-127.58805
45.28000,-3.12897,-3.82429,-127.59505
45.29200,-3.12945,-3.82622,-127.58677
45.31400,-3.12755,-3.82010,-127.61209
45.32600,-3.12737,-3.81761,-127.61399
45.34800,-3.12395,-3.81889,-127.56915
45.37000,-3.12801,-3.81118,-127.57392
45.38200,-3.12990,-3.81101,-127.57525
45.40400,-3.13297,-3.81324,-127.58723
45.41600,-3.13415,-3.81280,-127.58890
45.43800,-3.13837,-3.81059,-127.57518
45.45000,-3.13937,-3.81185,-127.56752
45.47200,-3.13404,-3.81077,-127.57136
45.48400,-3.13979,-3.81473,-127.57626
45.50600,-3.14526,-3.81295,-127.60487
45.51800,-3.14451,-3.81673,-127.60928
45.54000,-3.14140,-3.82179,-127.61418
45.56200,-3.13773,-3.81781,-127.61407
45.57400,-3.13978,-3.81717,-127.60555
45.59600,-3.14153,-3.81620,-127.61428
45.60800,-3.14090,-3.81585,-127.62543
45.63000,-3.14029,-3.80768,-127.62009
45.64200,-3.13825,-3.81009,-127.61864
45.66400,-3.13689,-3.81695,-127.62981
45.68600,-3.14203,-3.80836,-127.62668
45.69800,-3.13618,-3.80605,-127.62961
45.72000,-3.13984,-3.81122,-127.62142
45.73200,-3.14269,-3.80782,-127.62627
45.75400,-3.13846,-3.81549,-127.62089
45.76600,-3.13852,-3.81520,-127.62009
45.78800,-3.14342,-3.81072,-127.62413
45.81000,-3.14285,-3.81529,-127.62849
45.82200,-3.14458,-3.81463,-127.62962
45.84400,-3.14208,-3.82458,-127.62141
45.85600,-3.14315,-3.82496,-127.62649
45.87800,-3.13762,-3.82615,-127.60899
45.89000,-3.13674,-3.83063,-127.62135
45.91200,-3.13495,-3.82099,-127.62417
45.92400,-3.13409,-3.82536,-127.62273
45.94600,-3.13598,-3.83007,-127.63915
45.96800,-3.14512,-3.82697,-127.62418
45.98000,-3.14693,-3.82970,-127.62437
46.00200,-3.14670,-3.82009,-127.62915
46.01400,-3.14947,-3.81842,-127.63131
46.03600,-3.14614,-3.82961,-127.62866
46.04800,-3.14480,-3.82546,-127.62493
46.07000,-3.14657,-3.83169,-127.61694
46.09200,-3.14028,-3.83800,-127.62550
46.10400,-3.14242,-3.83667,-127.63146
46.12600,-3.14205,-3.84792,-127.65456
46.13800,-3.14010,-3.84393,-127.66045
46.16000,-3.13590,-3.84079,-127.66438
46.17200,-3.13650,-3.84565,-127.66573
46.19400,-3.13479,-3.84665,-127.66309
46.21600,-3.13188,-3.83895,-127.66183
46.22800,-3.12642,-3.84022,-127.65771
46.25000,-3.12451,-3.83180,-127.65079
46.26200,-3.12436,-3.82950,-127.65209
46.28400,-3.13043,-3.82495,-127.62785
46.29600,-3.12914,-3.82413,-127.62387
46.31800,-3.12690,-3.82518,-127.61693
46.33000,-3.12918,-3.82490,-127.61639
46.35200,-3.12497,-3.82915,-127.61691
46.37400,-3.12065,-3.83028,-127.64890
46.38600,-3.11751,-3.83241,-127.63385
46.40800,-3.11781,-3.83500,-127.64124
46.42000,-3.11555,-3.83451,-127.64104
46.44200,-3.11364,-3.83137,-127.62168
46.45400,-3.11394,-3.83253,-127.60758
46.47600,-3.11709,-3.83356,-127.61430
46.49800,-3.11559,-3.82805,-127.58704
46.51000,-3.11514,-3.83354,-127.57758
46.53200,-3.11695,-3.83295,-127.57921
46.54400,-3.12122,-3.83095,-127.57186
46.56600,-3.12021,-3.84170,-127.56046
46.57800,-3.11791,-3.83432,-127.56068
46.60000,-3.11976,-3.83622,-127.57138
46.61228,-3.11770,-3.84123,-127.56652
46.63400,-3.12109,-3.82995,-127.58157
46.65600,-3.11840,-3.83228,-127.59251
46.66800,-3.11916,-3.83326,-127.57993
46.69000,-3.12177,-3.82641,-127.56782
46.70200,-3.12119,-3.83016,-127.56876
46.72900,-3.11610,-3.84100,-127.56377
46.74100,-3.11729,-3.84095,-127.57226
46.76300,-3.11711,-3.84210,-127.55726
46.77500,-3.11642,-3.84171,-127.55681
46.79700,-3.11796,-3.83579,-127.55630
46.80900,-3.11708,-3.83866,-127.55990
46.83100,-3.11429,-3.83297,-127.55522
46.84300,-3.11280,-3.83327,-127.54165
46.86500,-3.11451,-3.83686,-127.55957
46.87700,-3.11489,-3.83618,-127.56339
46.89900,-3.11146,-3.83102,-127.59380
46.92100,-3.10684,-3.82291,-127.60134
46.93300,-3.10838,-3.82433,-127.61142
46.95500,-3.10914,-3.82504,-127.59184
46.96700,-3.10628,-3.82441,-127.59488
46.98900,-3.10598,-3.82085,-127.59075
47.00100,-3.10634,-3.82193,-127.59439
47.02300,-3.10861,-3.82203,-127.60017
47.04500,-3.09916,-3.81894,-127.58897
47.05700,-3.10118,-3.81744,-127.58615
47.07900,-3.10532,-3.81106,-127.57708
47.09100,-3.10524,-3.81410,-127.59081
47.11300,-3.10192,-3.81893,-127.59750
47.12500,-3.09963,-3.81903,-127.60257
47.14700,-3.10738,-3.81840,-127.63362
47.15928,-3.10380,-3.81840,-127.63651
47.18200,-3.10148,-3.82007,-127.62870
47.20400,-3.09936,-3.82249,-127.61482
47.21600,-3.10168,-3.82655,-127.61078
47.23800,-3.09671,-3.82274,-127.61468
47.25000,-3.09676,-3.82311,-127.61109
47.27200,-3.09622,-3.83107,-127.61703
47.28400,-3.09431,-3.82991,-127.62208
47.30600,-3.08839,-3.81942,-127.62163
47.31800,-3.08907,-3.82523,-127.61617
47.34000,-3.08957,-3.82203,-127.61138
47.36200,-3.09207,-3.82142,-127.60117
47.37400,-3.09115,-3.82392,-127.60537
47.39600,-3.09064,-3.82353,-127.60290
47.40800,-3.08974,-3.82079,-127.60262
47.43000,-3.08985,-3.82341,-127.61784
47.44200,-3.08701,-3.82446,-127.62327
47.46400,-3.09335,-3.81771,-127.62653
47.48600,-3.09488,-3.81901,-127.60686
47.49800,-3.09834,-3.81569,-127.61359
47.52000,-3.09867,-3.81613,-127.60632
47.53200,-3.09865,-3.81767,-127.60620
47.55400,-3.10214,-3.81220,-127.58873
47.56600,-3.10348,-3.81202,-127.58449
47.58800,-3.10273,-3.81735,-127.58926
47.61000,-3.10380,-3.81515,-127.58086
47.62200,-3.10093,-3.81564,-127.60984
47.64400,-3.10038,-3.82058,-127.60836
47.65600,-3.10249,-3.81800,-127.60468
47.67800,-3.10975,-3.81880,-127.62467
47.69000,-3.10869,-3.82019,-127.61717
47.71200,-3.11421,-3.82019,-127.61712
47.72400,-3.11443,-3.81986,-127.61067
47.74600,-3.12043,-3.82342,-127.60342
47.76800,-3.11789,-3.82236,-127.60239
47.78000,-3.11805,-3.82498,-127.60704
47.80200,-3.12157,-3.81493,-127.60646
47.81400,-3.11847,-3.81689,-127.62303
47.83600,-3.12157,-3.81784,-127.63521
47.84800,-3.12142,-3.81646,-127.63253
47.87000,-3.11720,-3.81919,-127.63548
47.89200,-3.11773,-3.81677,-127.65339
47.90400,-3.11548,-3.81291,-127.66451
47.92600,-3.11050,-3.81440,-127.68142
47.93800,-3.11336,-3.81100,-127.68384
47.96000,-3.11059,-3.81402,-127.68526
47.97200,-3.11201,-3.81911,-127.68761
47.99400,-3.11084,-3.81320,-127.68909
48.00628,-3.10973,-3.81235,-127.68475
48.02800,-3.11344,-3.81653,-127.66345
48.05000,-3.11174,-3.80386,-127.68813
48.06200,-3.11402,-3.80407,-127.68337
48.08400,-3.11732,-3.80436,-127.68661
48.09600,-3.11859,-3.79648,-127.67807
48.11800,-3.11833,-3.80597,-127.67307
48.13000,-3.11925,-3.80738,-127.67033
48.15200,-3.12014,-3.79888,-127.67620
48.17400,-3.11215,-3.80121,-127.67821
48.18600,-3.11337,-3.79721,-127.68021
48.20800,-3.10532,-3.79314,-127.66442
48.22000,-3.10455,-3.79600,-127.66730
48.24200,-3.10376,-3.78701,-127.68459
48.25400,-3.10673,-3.78230,-127.67955
48.27600,-3.11156,-3.78900,-127.65875
48.29800,-3.11726,-3.78366,-127.67881
48.31000,-3.11712,-3.78351,-127.67918
48.33200,-3.11618,-3.78387,-127.70567
48.34400,-3.11832,-3.78016,-127.71057
48.36600,-3.11715,-3.77865,-127.72423
48.37800,-3.12048,-3.77993,-127.71698
48.40000,-3.12132,-3.77576,-127.73615
48.41200,-3.12246,-3.77994,-127.75179
48.43400,-3.12785,-3.77860,-127.77615
48.45600,-3.13130,-3.77439,-127.76688
48.46800,-3.13380,-3.77523,-127.76965
48.49000,-3.13395,-3.77743,-127.76826
48.50200,-3.13018,-3.77929,-127.76859
48.52400,-3.12551,-3.78403,-127.79372
48.53600,-3.12617,-3.78336,-127.79229
48.55800,-3.11671,-3.78973,-127.77370
48.58000,-3.11900,-3.79421,-127.78424
48.59200,-3.11807,-3.79177,-127.78938
48.61400,-3.10976,-3.79350,-127.77700
48.62600,-3.11182,-3.79421,-127.76044
48.64800,-3.10633,-3.78934,-127.74216
48.66000,-3.10470,-3.78518,-127.74339
48.68200,-3.10214,-3.78312,-127.71919
48.70400,-3.09433,-3.78224,-127.70676
48.71600,-3.09195,-3.78499,-127.70457
48.73300,-3.09900,-3.78037,-127.70231
48.75500,-3.10632,-3.78506,-127.70257
48.76700,-3.10586,-3.78794,-127.69833
48.78900,-3.11131,-3.77903,-127.68777
48.80100,-3.11150,-3.77627,-127.68272
48.82300,-3.11419,-3.77717,-127.68054
48.84500,-3.11504,-3.78548,-127.66105
48.85700,-3.11626,-3.78399,-127.65736
48.87900,-3.11910,-3.78429,-127.67337
48.89100,-3.11789,-3.78326,-127.65731
48.91300,-3.11882,-3.78999,-127.65620
48.92500,-3.11799,-3.79068,-127.66148
48.94700,-3.12132,-3.79923,-127.64656
48.95900,-3.11904,-3.80067,-127.65507
48.98100,-3.11870,-3.80425,-127.65086
49.00300,-3.11707,-3.80252,-127.63130
49.01500,-3.11917,-3.80163,-127.63620
49.03700,-3.12015,-3.79292,-127.63872
49.04900,-3.11972,-3.79184,-127.63653
49.07100,-3.12280,-3.78679,-127.63978
49.08300,-3.12268,-3.78590,-127.63583
49.10500,-3.12630,-3.78912,-127.64131
49.12700,-3.13282,-3.78112,-127.63803
49.13900,-3.12999,-3.78312,-127.63982
49.16100,-3.12942,-3.78392,-127.63886
49.17300,-3.12989,-3.78347,-127.64165
49.19500,-3.13059,-3.78375,-127.64368
49.20700,-3.13140,-3.78637,-127.63369
49.22900,-3.13292,-3.78667,-127.62035
49.25100,-3.12900,-3.79022,-127.62305
49.26300,-3.12748,-3.79102,-127.62421
49.28500,-3.13549,-3.78624,-127.64004
49.29700,-3.13675,-3.79068,-127.63290
49.31900,-3.13989,-3.78508,-127.65719
49.33100,-3.13806,-3.78339,-127.64072
49.35300,-3.13494,-3.78243,-127.64717
49.36500,-3.13695,-3.78060,-127.64546
49.38700,-3.14164,-3.78925,-127.64943
49.40900,-3.14229,-3.78811,-127.66203
49.42100,-3.14265,-3.78564,-127.66434
49.44300,-3.13948,-3.79574,-127.67792
49.45500,-3.13696,-3.79442,-127.67613
49.47700,-3.13779,-3.79242,-127.67885
49.48900,-3.13716,-3.79854,-127.68407
49.51100,-3.13681,-3.79675,-127.68835
49.53300,-3.13965,-3.79270,-127.69438
49.54500,-3.14118,-3.79195,-127.69659
49.56700,-3.14109,-3.78838,-127.68621
49.57900,-3.14290,-3.78823,-127.68040
49.60100,-3.13859,-3.79347,-127.69684
49.61300,-3.14121,-3.79054,-127.69635
49.63500,-3.14326,-3.78273,-127.67467
49.65700,-3.14380,-3.79311,-127.66084
49.66900,-3.14619,-3.79180,-127.65825
49.69100,-3.14174,-3.78600,-127.69422
49.70300,-3.14358,-3.78459,-127.69183
49.72500,-3.13703,-3.79062,-127.69728
49.73700,-3.13500,-3.78965,-127.69919
49.75900,-3.13023,-3.79401,-127.70095
49.77100,-3.13006,-3.79511,-127.70188
49.79300,-3.12971,-3.78712,-127.71156
49.81500,-3.13174,-3.78659,-127.70409
49.82700,-3.13511,-3.78640,-127.70274
49.84900,-3.14292,-3.77498,-127.70470
49.86100,-3.14382,-3.78111,-127.70725
49.88300,-3.14297,-3.78005,-127.69359
49.89500,-3.14437,-3.77955,-127.68614
49.91700,-3.14469,-3.78420,-127.68489
49.93900,-3.14614,-3.78252,-127.67646
49.95100,-3.14464,-3.77956,-127.69263
49.97300,-3.14907,-3.78124,-127.70287
49.98500,-3.15166,-3.77887,-127.70154
50.00700,-3.15156,-3.77711,-127.67982
50.01900,-3.15079,-3.77585,-127.68494
50.04100,-3.15636,-3.78062,-127.70100
50.05300,-3.15880,-3.78210,-127.70267
50.07500,-3.15529,-3.77894,-127.72372
50.09700,-3.15269,-3.77743,-127.73300
50.10900,-3.15340,-3.77632,-127.72889
50.13100,-3.15007,-3.77817,-127.73669
50.14300,-3.15056,-3.77461,-127.73990
50.16500,-3.14847,-3.77252,-127.76503
50.17700,-3.14848,-3.77409,-127.75573
50.19900,-3.14334,-3.77462,-127.73755
50.22100,-3.14050,-3.77899,-127.75336
50.23300,-3.14013,-3.77805,-127.75915
50.25500,-3.13788,-3.76658,-127.76453
50.26700,-3.13665,-3.76743,-127.76200
50.28900,-3.13476,-3.77151,-127.76307
50.30100,-3.13401,-3.76801,-127.77287
50.32300,-3.13577,-3.77807,-127.76340
50.34500,-3.13408,-3.78124,-127.75725
50.35700,-3.13514,-3.77830,-127.75030
50.37900,-3.13535,-3.79235,-127.77132
50.39100,-3.13679,-3.79076,-127.76297
50.41300,-3.13628,-3.78131,-127.76641
50.42500,-3.13594,-3.78444,-127.76798
50.44700,-3.13903,-3.77879,-127.80406
50.45900,-3.13740,-3.77741,-127.79346
50.48100,-3.13450,-3.78252,-127.80408
50.50300,-3.13655,-3.78010,-127.81048
50.51500,-3.13818,-3.78161,-127.80840
50.53700,-3.13403,-3.78258,-127.80123
50.54900,-3.13465,-3.78037,-127.79940
50.57100,-3.12624,-3.77891,-127.77682
50.58300,-3.12591,-3.77858,-127.77700
50.60500,-3.12241,-3.77358,-127.76211
50.62700,-3.11710,-3.78515,-127.77092
50.63900,-3.11471,-3.78183,-127.77529
50.66100,-3.11455,-3.78417,-127.78189
50.67300,-3.11328,-3.78702,-127.77644
50.69500,-3.10915,-3.78427,-127.76437
50.70700,-3.11034,-3.77968,-127.77629
50.73400,-3.10544,-3.78539,-127.78231
50.74600,-3.10689,-3.78252,-127.78578
50.76800,-3.10942,-3.78253,-127.75984
50.78000,-3.10742,-3.78161,-127.75141
50.80200,-3.10795,-3.78314,-127.76804
50.81400,-3.10876,-3.78295,-127.75969
50.83600,-3.10325,-3.78495,-127.74795
50.84800,-3.10139,-3.78539,-127.75286
50.87000,-3.10178,-3.78184,-127.74760
50.89200,-3.10351,-3.77004,-127.77090
50.90400,-3.10235,-3.77094,-127.76491
50.92600,-3.10501,-3.77527,-127.76698
50.93800,-3.10940,-3.77174,-127.77809
50.96000,-3.11295,-3.77664,-127.78889
50.97200,-3.11171,-3.77793,-127.78768
50.99400,-3.11312,-3.76976,-127.80239
51.00600,-3.11408,-3.77019,-127.79171
51.02800,-3.11634,-3.77921,-127.77286
51.05000,-3.11511,-3.76958,-127.78274
51.06200,-3.11430,-3.77469,-127.79556
51.08400,-3.11233,-3.77361,-127.77135
51.09600,-3.11747,-3.77424,-127.75009
51.11800,-3.11481,-3.77485,-127.75367
51.13000,-3.11424,-3.77606,-127.75179
51.15200,-3.11613,-3.77895,-127.74954
51.17400,-3.12169,-3.76943,-127.75193
51.18600,-3.11996,-3.76989,-127.76480
51.20800,-3.11770,-3.77739,-127.78479
51.22000,-3.12044,-3.77456,-127.79644
51.24200,-3.11770,-3.77587,-127.78623
51.25400,-3.11685,-3.77835,-127.79079
51.27600,-3.12008,-3.77809,-127.80793
51.29800,-3.11944,-3.77725,-127.83566
51.31000,-3.11843,-3.78151,-127.83147
51.33200,-3.12040,-3.77792,-127.83671
51.34400,-3.11981,-3.78184,-127.83739
51.36600,-3.11294,-3.79005,-127.85642
51.37800,-3.11262,-3.79225,-127.85749
51.40000,-3.10961,-3.79542,-127.86761
51.41200,-3.10904,-3.79367,-127.87769
51.43400,-3.10862,-3.78747,-127.88351
51.45600,-3.10285,-3.79150,-127.88152
51.46800,-3.10004,-3.79476,-127.88212
51.49000,-3.09849,-3.79230,-127.90626
51.50200,-3.09494,-3.79433,-127.91206
51.52400,-3.09479,-3.78997,-127.93438
51.53600,-3.09739,-3.79071,-127.92670
51.55800,-3.09861,-3.79485,-127.89904
51.58000,-3.09375,-3.79756,-127.90296
51.59200,-3.09334,-3.79874,-127.91135
51.61400,-3.09090,-3.80103,-127.91900
51.62600,-3.08923,-3.80046,-127.91606
51.64800,-3.09064,-3.80353,-127.90025
51.66000,-3.09228,-3.80273,-127.90505
51.68200,-3.09290,-3.80896,-127.89612
51.69428,-3.09170,-3.81405,-127.89273
51.71600,-3.08961,-3.80057,-127.88898
51.73800,-3.08473,-3.80305,-127.90092
51.75000,-3.08304,-3.80161,-127.90502
51.77200,-3.08451,-3.79910,-127.90308
51.78400,-3.08769,-3.80215,-127.90695
51.80600,-3.09042,-3.80557,-127.90897
51.81800,-3.09171,-3.80188,-127.90567
51.84000,-3.09074,-3.81139,-127.89825
51.86200,-3.09461,-3.80280,-127.89023
51.87400,-3.09255,-3.79972,-127.90213
51.89600,-3.09544,-3.80727,-127.88049
51.90800,-3.09436,-3.80483,-127.87708
51.93000,-3.09376,-3.80333,-127.89071
51.94200,-3.09316,-3.80281,-127.88729
51.96400,-3.08992,-3.80436,-127.88779
51.98600,-3.08893,-3.80424,-127.89030
51.99800,-3.08981,-3.80093,-127.89159
52.02000,-3.09215,-3.79935,-127.92834
52.03200,-3.09221,-3.79645,-127.92814
52.05400,-3.09320,-3.80131,-127.91945
52.06600,-3.09483,-3.79993,-127.91582
52.08800,-3.09639,-3.80454,-127.91994
52.10000,-3.09527,-3.80379,-127.92815
52.12200,-3.09644,-3.80274,-127.92408
52.14400,-3.09753,-3.79871,-127.92589
52.15600,-3.09887,-3.79749,-127.92796
52.17800,-3.09345,-3.80683,-127.92292
52.19000,-3.09538,-3.80843,-127.92432
52.21200,-3.09950,-3.80825,-127.94112
52.22400,-3.10492,-3.80944,-127.92497
52.24600,-3.10971,-3.80732,-127.93607
52.26800,-3.11141,-3.80480,-127.93094
52.28000,-3.11050,-3.80485,-127.93196
52.30200,-3.11650,-3.81346,-127.95361
52.31400,-3.11770,-3.80884,-127.94428
52.33600,-3.11860,-3.80651,-127.94485
52.34800,-3.11874,-3.80836,-127.95952
52.37000,-3.12190,-3.80324,-127.94125
52.39200,-3.11497,-3.80352,-127.93396
52.40400,-3.11477,-3.80502,-127.94131
52.42600,-3.10866,-3.80160,-127.93993
52.43800,-3.10721,-3.80248,-127.93300
52.46000,-3.10148,-3.80162,-127.91598
52.47200,-3.10385,-3.80349,-127.91730
52.49400,-3.10474,-3.80596,-127.93684
52.50600,-3.10252,-3.80500,-127.93337
52.52800,-3.10401,-3.80996,-127.94205
52.55000,-3.10887,-3.80939,-127.94214
52.56200,-3.11061,-3.80675,-127.93632
52.58400,-3.10716,-3.81629,-127.93382
52.59600,-3.10556,-3.81733,-127.94049
52.61800,-3.10893,-3.81319,-127.94594
52.63000,-3.10959,-3.81713,-127.93600
52.65200,-3.11391,-3.81625,-127.93488
52.67400,-3.11824,-3.81025,-127.96875
52.68600,-3.12087,-3.80843,-127.96598
52.70800,-3.12359,-3.81271,-127.97208
52.72000,-3.12279,-3.81171,-127.97043
52.73700,-3.12336,-3.81670,-127.97551
52.75900,-3.12243,-3.81801,-127.95757
52.77100,-3.12191,-3.81759,-127.96014
52.79300,-3.11839,-3.81217,-127.94184
52.81500,-3.12074,-3.80204,-127.93664
52.82700,-3.11919,-3.80015,-127.93227
52.84900,-3.11828,-3.80529,-127.95282
52.86100,-3.11867,-3.80258,-127.93650
52.88300,-3.11879,-3.79349,-127.92574
52.89500,-3.11210,-3.79241,-127.92319
52.91700,-3.11721,-3.79422,-127.94939
